R FLEXOR CARPI RADIALIS: EMG 4 [V],R EXTENSOR DIGITORUM: EMG 5 [V],R IMU Wrist: ACC.X 6 [g],R IMU Wrist: ACC.Y 6 [g],R IMU Wrist: ACC.Z 6 [g],R IMU Wrist: GYRO.X 6 [°/s],R IMU Wrist: GYRO.Y 6 [°/s],R IMU Wrist: GYRO.Z 6 [°/s]
0.00000e+000,0.00000e+000,0.00000e+000,0.00000e+000,0.00000e+000,0.00000e+000,0.00000e+000,0.00000e+000
0.00000e+000,0.00000e+000,0.00000e+000,0.00000e+000,0.00000e+000,0.00000e+000,0.00000e+000,0.00000e+000
0.00000e+000,0.00000e+000,0.00000e+000,0.00000e+000,0.00000e+000,0.00000e+000,0.00000e+000,0.00000e+000
0.00000e+000,0.00000e+000,0.00000e+000,0.00000e+000,0.00000e+000,0.00000e+000,0.00000e+000,0.00000e+000
0.00000e+000,0.00000e+000,0.00000e+000,0.00000e+000,0.00000e+000,0.00000e+000,0.00000e+000,0.00000e+000
0.00000e+000,0.00000e+000,0.00000e+000,0.00000e+000,0.00000e+000,0.00000e+000,0.00000e+000,0.00000e+000
0.00000e+000,0.00000e+000,0.00000e+000,0.00000e+000,0.00000e+000,0.00000e+000,0.00000e+000,0.00000e+000
0.00000e+000,0.00000e+000,0.00000e+000,0.00000e+000,0.00000e+000,0.00000e+000,0.00000e+000,0.00000e+000
0.00000e+000,0.00000e+000,0.00000e+000,0.00000e+000,0.00000e+000,0.00000e+000,0.00000e+000,0.00000e+000
0.00000e+000,0.00000e+000,0.00000e+000,0.00000e+000,0.00000e+000,0.00000e+000,0.00000e+000,0.00000e+000
0.00000e+000,0.00000e+000,0.00000e+000,0.00000e+000,0.00000e+000,0.00000e+000,0.00000e+000,0.00000e+000
0.00000e+000,0.00000e+000,0.00000e+000,0.00000e+000,0.00000e+000,0.00000e+000,0.00000e+000,0.00000e+000
0.00000e+000,0.00000e+000,0.00000e+000,0.00000e+000,0.00000e+000,0.00000e+000,0.00000e+000,0.00000e+000
0.00000e+000,0.00000e+000,0.00000e+000,0.00000e+000,0.00000e+000,0.00000e+000,0.00000e+000,0.00000e+000
0.00000e+000,0.00000e+000,0.00000e+000,0.00000e+000,0.00000e+000,0.00000e+000,0.00000e+000,0.00000e+000
0.00000e+000,0.00000e+000,0.00000e+000,0.00000e+000,0.00000e+000,0.00000e+000,0.00000e+000,0.00000e+000
0.00000e+000,0.00000e+000,0.00000e+000,0.00000e+000,0.00000e+000,0.00000e+000,0.00000e+000,0.00000e+000
0.00000e+000,0.00000e+000,0.00000e+000,0.00000e+000,0.00000e+000,0.00000e+000,0.00000e+000,0.00000e+000
0.00000e+000,0.00000e+000,0.00000e+000,0.00000e+000,0.00000e+000,0.00000e+000,0.00000e+000,0.00000e+000
0.00000e+000,0.00000e+000,0.00000e+000,0.00000e+000,0.00000e+000,0.00000e+000,0.00000e+000,0.00000e+000
0.00000e+000,0.00000e+000,0.00000e+000,0.00000e+000,0.00000e+000,0.00000e+000,0.00000e+000,0.00000e+000
0.00000e+000,0.00000e+000,0.00000e+000,0.00000e+000,0.00000e+000,0.00000e+000,0.00000e+000,0.00000e+000
0.00000e+000,0.00000e+000,0.00000e+000,0.00000e+000,0.00000e+000,0.00000e+000,0.00000e+000,0.00000e+000
0.00000e+000,0.00000e+000,0.00000e+000,0.00000e+000,0.00000e+000,0.00000e+000,0.00000e+000,0.00000e+000
0.00000e+000,0.00000e+000,0.00000e+000,0.00000e+000,0.00000e+000,0.00000e+000,0.00000e+000,0.00000e+000
0.00000e+000,0.00000e+000,0.00000e+000,0.00000e+000,0.00000e+000,0.00000e+000,0.00000e+000,0.00000e+000
0.00000e+000,0.00000e+000,0.00000e+000,0.00000e+000,0.00000e+000,0.00000e+000,0.00000e+000,0.00000e+000
0.00000e+000,0.00000e+000,0.00000e+000,0.00000e+000,0.00000e+000,0.00000e+000,0.00000e+000,0.00000e+000
0.00000e+000,0.00000e+000,0.00000e+000,0.00000e+000,0.00000e+000,0.00000e+000,0.00000e+000,0.00000e+000
0.00000e+000,0.00000e+000,0.00000e+000,0.00000e+000,0.00000e+000,0.00000e+000,0.00000e+000,0.00000e+000
0.00000e+000,0.00000e+000,0.00000e+000,0.00000e+000,0.00000e+000,0.00000e+000,0.00000e+000,0.00000e+000
0.00000e+000,0.00000e+000,0.00000e+000,0.00000e+000,0.00000e+000,0.00000e+000,0.00000e+000,0.00000e+000
0.00000e+000,0.00000e+000,0.00000e+000,0.00000e+000,0.00000e+000,0.00000e+000,0.00000e+000,0.00000e+000
0.00000e+000,0.00000e+000,0.00000e+000,0.00000e+000,0.00000e+000,0.00000e+000,0.00000e+000,0.00000e+000
0.00000e+000,0.00000e+000,0.00000e+000,0.00000e+000,0.00000e+000,0.00000e+000,0.00000e+000,0.00000e+000
0.00000e+000,0.00000e+000,4.68262e-001,-1.85547e-002,9.69727e-001,6.15854e+000,-5.00000e+000,5.42683e+000
0.00000e+000,0.00000e+000,4.35059e-001,0.00000e+000,9.75586e-001,7.01220e+000,-2.01220e+000,3.78049e+000
0.00000e+000,0.00000e+000,3.75000e-001,3.27148e-002,9.86328e-001,7.19512e+000,5.42683e+000,1.15854e+000
0.00000e+000,0.00000e+000,3.50098e-001,3.85742e-002,1.00439e+000,5.97561e+000,9.39024e+000,1.82927e-001
0.00000e+000,0.00000e+000,3.24707e-001,3.95508e-002,1.05469e+000,3.17073e+000,1.56098e+001,-6.70732e-001
0.00000e+000,0.00000e+000,3.48145e-001,3.51563e-002,1.08594e+000,1.15854e+000,1.63415e+001,-7.92683e-001
0.00000e+000,0.00000e+000,3.80371e-001,3.75977e-002,1.09229e+000,-2.74390e+000,1.04268e+001,-2.80488e+000
0.00000e+000,0.00000e+000,4.33105e-001,3.61328e-002,1.11035e+000,-3.84146e+000,7.86585e+000,-4.87805e+000
0.00000e+000,0.00000e+000,4.36523e-001,4.24805e-002,1.11768e+000,-4.63415e+000,5.54878e+000,-9.75610e+000
0.00000e+000,0.00000e+000,3.95020e-001,4.73633e-002,1.13525e+000,-5.30488e+000,4.63415e+000,-1.18902e+001
0.00000e+000,0.00000e+000,3.62305e-001,4.49219e-002,1.14014e+000,-5.12195e+000,4.08537e+000,-1.48780e+001
0.00000e+000,0.00000e+000,2.98340e-001,2.00195e-002,1.14404e+000,-5.54878e+000,4.51220e+000,-1.53049e+001
0.00000e+000,0.00000e+000,2.70996e-001,3.41797e-003,1.13086e+000,-3.41463e+000,4.69512e+000,-1.54268e+001
0.00000e+000,0.00000e+000,2.27539e-001,-2.83203e-002,1.08643e+000,-2.56098e+000,4.32927e+000,-1.51829e+001
0.00000e+000,0.00000e+000,2.08984e-001,-4.49219e-002,1.06250e+000,-2.98780e+000,6.70732e-001,-1.44512e+001
0.00000e+000,0.00000e+000,1.76758e-001,-6.64063e-002,1.02734e+000,-3.59756e+000,-1.89024e+000,-1.36585e+001
0.00000e+000,0.00000e+000,1.63086e-001,-7.61719e-002,1.01416e+000,-6.34146e+000,-6.58537e+000,-1.27439e+001
0.00000e+000,0.00000e+000,1.23535e-001,-8.10547e-002,1.00049e+000,-8.90244e+000,-8.41463e+000,-1.07927e+001
0.00000e+000,0.00000e+000,1.06934e-001,-9.08203e-002,9.98047e-001,-1.08537e+001,-9.51220e+000,-9.45122e+000
0.00000e+000,0.00000e+000,9.76563e-002,-1.06934e-001,9.91699e-001,-1.31707e+001,-1.06098e+001,-5.79268e+000
0.00000e+000,0.00000e+000,1.00098e-001,-1.19141e-001,9.84863e-001,-1.39634e+001,-1.10976e+001,-3.65854e+000
0.00000e+000,0.00000e+000,1.07910e-001,-1.41602e-001,9.55078e-001,-1.41463e+001,-1.25610e+001,0.00000e+000
0.00000e+000,0.00000e+000,1.14746e-001,-1.57715e-001,9.13086e-001,-1.26220e+001,-1.42683e+001,1.09756e+000
0.00000e+000,0.00000e+000,1.07910e-001,-1.94824e-001,7.94434e-001,-8.23171e+000,-2.07927e+001,1.76829e+000
0.00000e+000,0.00000e+000,9.27734e-002,-2.10938e-001,7.17773e-001,-4.57317e+000,-2.32927e+001,1.34146e+000
0.00000e+000,0.00000e+000,1.41602e-002,-2.50977e-001,6.03027e-001,2.31707e+000,-2.50000e+001,6.09756e-001
0.00000e+000,0.00000e+000,-1.16699e-001,-3.08594e-001,5.41504e-001,6.21951e+000,-2.48780e+001,6.70732e-001
0.00000e+000,0.00000e+000,-1.88477e-001,-3.34961e-001,5.19531e-001,1.45122e+001,-2.39634e+001,2.31707e+000
0.00000e+000,0.00000e+000,-3.26660e-001,-3.86719e-001,4.93164e-001,1.81707e+001,-2.40244e+001,2.86585e+000
0.00000e+000,0.00000e+000,-3.84277e-001,-4.12109e-001,5.09277e-001,2.29878e+001,-2.57927e+001,3.90244e+000
0.00000e+000,0.00000e+000,-4.79492e-001,-4.47754e-001,5.66406e-001,2.56707e+001,-2.66463e+001,3.53659e+000
0.00000e+000,0.00000e+000,-5.09277e-001,-4.54102e-001,6.07910e-001,2.83537e+001,-2.98780e+001,1.21951e-001
0.00000e+000,0.00000e+000,-5.24902e-001,-4.40918e-001,6.72852e-001,2.84756e+001,-3.05488e+001,-2.25610e+000
0.00000e+000,0.00000e+000,-5.03418e-001,-4.23828e-001,7.07031e-001,2.55488e+001,-3.00000e+001,-6.64634e+000
0.00000e+000,0.00000e+000,-3.86230e-001,-3.74023e-001,7.93945e-001,2.21341e+001,-2.95122e+001,-7.86585e+000
0.00000e+000,0.00000e+000,-2.79785e-001,-3.47168e-001,8.48145e-001,1.57927e+001,-2.73780e+001,-7.37805e+000
0.00000e+000,0.00000e+000,6.83594e-003,-2.78809e-001,9.24805e-001,1.26220e+001,-2.75610e+001,-5.97561e+000
0.00000e+000,0.00000e+000,1.85059e-001,-1.97266e-001,9.96582e-001,-1.21951e-001,-2.23780e+001,-2.86585e+000
0.00000e+000,0.00000e+000,3.43750e-001,-1.35742e-001,1.33496e+000,-1.67683e+001,-2.28659e+001,1.15854e+000
0.00000e+000,0.00000e+000,4.17480e-001,-1.31348e-001,1.23438e+000,-1.12805e+001,-3.96341e+001,5.48780e+000
0.00000e+000,0.00000e+000,6.86035e-001,-5.37109e-002,7.54395e-001,-1.15854e+000,-6.01220e+001,1.35976e+001
0.00000e+000,0.00000e+000,8.07129e-001,2.44141e-003,6.05469e-001,6.09756e-002,-5.48781e+001,1.50000e+001
0.00000e+000,0.00000e+000,8.82813e-001,7.91016e-002,6.46484e-001,-3.96341e+000,-3.20122e+001,1.70732e+001
0.00000e+000,0.00000e+000,8.56445e-001,9.37500e-002,7.15332e-001,-5.12195e+000,-2.46341e+001,1.90854e+001
0.00000e+000,0.00000e+000,7.28516e-001,1.13281e-001,8.53516e-001,-1.40244e+000,-1.84146e+001,2.07317e+001
0.00000e+000,0.00000e+000,6.35254e-001,1.09863e-001,9.01367e-001,2.98780e+000,-1.37195e+001,2.06098e+001
0.00000e+000,0.00000e+000,4.06250e-001,8.54492e-002,9.70703e-001,1.10976e+001,3.65854e-001,1.75610e+001
0.00000e+000,0.00000e+000,1.96289e-001,4.73633e-002,1.03271e+000,1.21951e+001,5.42683e+000,1.52439e+001
0.00000e+000,0.00000e+000,1.32813e-001,2.53906e-002,1.06787e+000,7.74390e+000,9.51220e+000,9.57317e+000
0.00000e+000,0.00000e+000,1.13770e-001,-2.49023e-002,1.11914e+000,4.20732e+000,8.17073e+000,6.89024e+000
0.00000e+000,0.00000e+000,1.47949e-001,-4.44336e-002,1.11914e+000,7.92683e-001,6.70732e+000,9.75610e-001
0.00000e+000,0.00000e+000,2.25098e-001,-6.15234e-002,1.06250e+000,1.82927e-001,5.91463e+000,-1.40244e+000
0.00000e+000,0.00000e+000,2.64160e-001,-5.85938e-002,1.02393e+000,-6.70732e-001,2.98780e+000,-5.91463e+000
0.00000e+000,0.00000e+000,3.24219e-001,-4.88281e-002,9.94141e-001,-9.14634e-001,2.13415e+000,-7.13415e+000
0.00000e+000,0.00000e+000,3.36426e-001,-5.71289e-002,1.00830e+000,-3.04878e+000,1.15854e+000,-8.59756e+000
0.00000e+000,0.00000e+000,3.47656e-001,-7.12891e-002,1.04004e+000,-3.10976e+000,9.75610e-001,-9.26829e+000
0.00000e+000,0.00000e+000,3.43750e-001,-8.34961e-002,1.04590e+000,-3.41463e+000,-8.53659e-001,-1.18293e+001
0.00000e+000,0.00000e+000,3.43262e-001,-9.86328e-002,1.04150e+000,-3.96341e+000,-2.98780e+000,-1.35976e+001
0.00000e+000,0.00000e+000,3.32520e-001,-1.01563e-001,1.03564e+000,-4.26829e+000,-3.65854e+000,-1.63415e+001
0.00000e+000,0.00000e+000,3.08594e-001,-1.02539e-001,1.03369e+000,-4.02439e+000,-1.64634e+000,-1.78049e+001
0.00000e+000,0.00000e+000,2.90527e-001,-1.03027e-001,1.03369e+000,-3.65854e+000,1.21951e-001,-1.74390e+001
0.00000e+000,0.00000e+000,2.47070e-001,-9.96094e-002,1.03223e+000,-2.86585e+000,3.65854e+000,-1.48780e+001
0.00000e+000,0.00000e+000,2.33398e-001,-1.02539e-001,1.02734e+000,-2.43902e+000,5.73171e+000,-1.35976e+001
0.00000e+000,0.00000e+000,2.09961e-001,-1.01074e-001,1.01953e+000,-3.10976e+000,9.69512e+000,-1.04268e+001
0.00000e+000,0.00000e+000,1.97266e-001,-1.09863e-001,1.01270e+000,-3.35366e+000,1.15854e+001,-8.90244e+000
0.00000e+000,0.00000e+000,1.81152e-001,-1.26953e-001,1.00781e+000,-5.60976e+000,1.62195e+001,-6.89024e+000
0.00000e+000,0.00000e+000,1.82129e-001,-1.36230e-001,1.00195e+000,-6.89024e+000,1.78659e+001,-5.79268e+000
0.00000e+000,0.00000e+000,1.90430e-001,-1.47461e-001,9.95605e-001,-8.90244e+000,2.29268e+001,-4.20732e+000
0.00000e+000,0.00000e+000,2.05566e-001,-1.60645e-001,9.74609e-001,-9.75610e+000,2.51829e+001,-3.59756e+000
0.00000e+000,0.00000e+000,2.13867e-001,-1.63086e-001,9.57520e-001,-1.09756e+001,2.81098e+001,-3.04878e+000
0.00000e+000,0.00000e+000,2.23145e-001,-1.66504e-001,9.18945e-001,-1.06707e+001,2.92683e+001,-2.74390e+000
0.00000e+000,0.00000e+000,2.21191e-001,-1.68945e-001,9.17969e-001,-1.14634e+001,3.31098e+001,-2.31707e+000
0.00000e+000,0.00000e+000,1.85547e-001,-1.83594e-001,8.86719e-001,-1.13415e+001,3.54268e+001,-1.70732e+000
0.00000e+000,0.00000e+000,1.69922e-001,-1.91895e-001,8.34473e-001,-8.23171e+000,3.68902e+001,9.14634e-001
0.00000e+000,0.00000e+000,1.33301e-001,-2.14355e-001,6.60645e-001,-5.79268e+000,3.58537e+001,1.15854e+000
0.00000e+000,0.00000e+000,1.16699e-001,-2.27051e-001,5.62500e-001,1.76829e+000,3.13415e+001,1.03659e+000
0.00000e+000,0.00000e+000,4.88281e-002,-2.65137e-001,4.31152e-001,5.12195e+000,2.86585e+001,3.04878e-001
0.00000e+000,0.00000e+000,-6.83594e-003,-2.87598e-001,4.17969e-001,1.04878e+001,2.59756e+001,-7.31707e-001
0.00000e+000,0.00000e+000,-1.50391e-001,-3.30078e-001,4.58496e-001,1.29878e+001,2.45732e+001,-1.15854e+000
0.00000e+000,0.00000e+000,-2.25098e-001,-3.49121e-001,4.99512e-001,1.64634e+001,2.17073e+001,-1.46341e+000
0.00000e+000,0.00000e+000,-3.54980e-001,-3.75977e-001,5.71777e-001,1.78049e+001,1.62805e+001,-3.04878e+000
0.00000e+000,0.00000e+000,-4.02344e-001,-3.80371e-001,6.05957e-001,1.78049e+001,1.21341e+001,-3.59756e+000
0.00000e+000,0.00000e+000,-4.38477e-001,-3.82813e-001,6.77734e-001,1.57927e+001,3.78049e+000,-4.69512e+000
0.00000e+000,0.00000e+000,-4.24805e-001,-3.68652e-001,7.07031e-001,1.35976e+001,-2.43902e-001,-5.30488e+000
-2.03098e-005,-9.68490e-005,-3.58398e-001,-3.28125e-001,7.65137e-001,9.08537e+000,-6.76829e+000,-5.60976e+000
-3.42412e-005,-9.98703e-005,-2.97363e-001,-3.11035e-001,7.99316e-001,6.34146e+000,-9.69512e+000,-5.48780e+000
-3.54162e-005,-7.60357e-005,-1.45996e-001,-2.73438e-001,8.59375e-001,2.74390e+000,-1.44512e+001,-4.51220e+000
-8.89601e-006,-9.78561e-005,2.73438e-002,-2.37793e-001,8.82813e-001,1.70732e+000,-1.59146e+001,-3.90244e+000
9.23171e-006,-5.95865e-005,1.09863e-001,-2.27051e-001,8.86719e-001,9.75610e-001,-1.90244e+001,-2.74390e+000
-3.18914e-006,-3.13878e-005,2.33398e-001,-1.97266e-001,8.80859e-001,9.14634e-001,-1.96341e+001,-2.19512e+000
-2.01419e-005,-2.13169e-005,2.75879e-001,-1.79199e-001,8.73535e-001,3.41463e+000,-1.89024e+001,-9.14634e-001
5.20333e-006,4.39765e-005,3.16895e-001,-1.43555e-001,8.53027e-001,4.51220e+000,-1.81098e+001,2.43902e-001
1.46029e-005,1.35622e-004,3.23242e-001,-1.24023e-001,8.45703e-001,7.19512e+000,-1.34756e+001,1.40244e+000
1.04067e-005,1.47875e-004,3.12012e-001,-7.95898e-002,8.54004e-001,8.47561e+000,-9.63415e+000,2.07317e+000
8.89601e-006,7.75463e-005,3.09082e-001,-6.29883e-002,8.77441e-001,8.96342e+000,-5.48781e-001,2.43902e+000
-7.88891e-006,5.22011e-005,3.25195e-001,-5.22461e-002,9.68750e-001,8.35366e+000,3.90244e+000,2.13415e+000
-1.04067e-005,2.97093e-005,3.43262e-001,-4.93164e-002,1.02100e+000,7.37805e+000,1.21341e+001,1.28049e+000
3.86053e-006,-9.23171e-006,3.89648e-001,-4.54102e-002,1.09766e+000,6.95122e+000,1.41463e+001,4.87805e-001
3.07164e-005,-3.87732e-005,4.12598e-001,-4.00391e-002,1.12305e+000,7.13415e+000,1.46341e+001,-2.98780e+000
4.06195e-005,-3.92767e-005,4.42871e-001,-2.00195e-002,1.13428e+000,7.74390e+000,1.34146e+001,-4.81707e+000
1.99741e-005,-1.89670e-005,4.44824e-001,-3.90625e-003,1.13818e+000,8.53659e+000,9.81707e+000,-1.00000e+001
6.37827e-006,-1.37636e-005,4.27246e-001,2.34375e-002,1.14844e+000,9.75610e+000,9.08537e+000,-1.51829e+001
1.25887e-005,-1.54421e-005,4.03320e-001,3.12500e-002,1.14795e+000,1.06098e+001,9.57317e+000,-1.75000e+001
1.22530e-005,-5.03548e-007,3.19824e-001,4.05273e-002,1.13672e+000,1.18293e+001,9.81707e+000,-2.21341e+001
-9.73526e-006,8.05676e-006,2.77344e-001,3.41797e-002,1.12549e+000,1.32317e+001,9.51220e+000,-2.39024e+001
-4.28016e-005,-3.69268e-006,1.87988e-001,1.46484e-002,1.08105e+000,1.24390e+001,7.07317e+000,-2.73780e+001
-6.09293e-005,-3.35698e-006,1.42578e-001,7.81250e-003,1.06348e+000,1.21341e+001,6.21951e+000,-2.85976e+001
-5.72366e-005,6.54612e-006,7.32422e-002,-1.41602e-002,1.02295e+000,1.01220e+001,4.75610e+000,-2.90244e+001
-4.39765e-005,1.69528e-005,3.85742e-002,-3.22266e-002,9.81934e-001,8.10976e+000,3.35366e+000,-2.84146e+001
-3.44091e-005,1.47707e-005,3.07617e-002,-4.44336e-002,9.67285e-001,3.96341e+000,-9.75610e-001,-2.66463e+001
-3.30663e-005,-9.56741e-006,3.61328e-002,-6.68945e-002,9.35059e-001,2.01220e+000,-3.47561e+000,-2.55488e+001
-5.52224e-005,3.37377e-005,4.24805e-002,-7.47070e-002,9.18945e-001,-7.31707e-001,-6.76829e+000,-2.28659e+001
-6.99931e-005,7.23430e-005,5.51758e-002,-8.93555e-002,8.99902e-001,-1.95122e+000,-7.68293e+000,-2.09756e+001
-6.32792e-005,-1.77920e-005,6.68945e-002,-9.66797e-002,8.91602e-001,-3.41463e+000,-7.74390e+000,-1.67073e+001
-4.98512e-005,-1.08598e-004,8.93555e-002,-1.14746e-001,8.86719e-001,-4.75610e+000,-7.62195e+000,-1.40854e+001
-3.03807e-005,-1.52575e-004,1.09863e-001,-1.21094e-001,8.91602e-001,-5.85366e+000,-5.91463e+000,-8.47561e+000
-1.22530e-005,-4.49836e-005,1.64063e-001,-1.38672e-001,8.81348e-001,-6.52439e+000,-6.03659e+000,-5.91463e+000
7.21752e-006,1.41497e-004,1.87988e-001,-1.45020e-001,8.67676e-001,-6.46341e+000,-7.56098e+000,-1.34146e+000
2.33310e-005,1.64996e-004,2.35352e-001,-1.63086e-001,8.25195e-001,-5.67073e+000,-9.02439e+000,1.21951e-001
3.37377e-005,1.27398e-004,2.45605e-001,-1.66504e-001,8.03223e-001,-4.93902e+000,-1.10976e+001,1.40244e+000
3.00450e-005,6.89860e-005,2.32910e-001,-1.75293e-001,7.57324e-001,-4.39024e+000,-1.07927e+001,1.28049e+000
3.35698e-006,-1.62814e-005,2.10938e-001,-1.83105e-001,7.31445e-001,-1.58537e+000,-1.05488e+001,1.46341e+000
-2.06455e-005,-6.59647e-005,1.59180e-001,-1.98242e-001,6.54785e-001,2.92683e+000,-1.25610e+001,8.53659e-001
-2.93736e-005,-9.68490e-005,1.30859e-001,-2.06543e-001,6.19141e-001,4.63415e+000,-1.31098e+001,-1.82927e-001
-3.25628e-005,-1.09606e-004,4.44336e-002,-2.30957e-001,5.78125e-001,9.02439e+000,-1.17683e+001,-9.14634e-001
-2.97093e-005,-1.08431e-004,-2.44141e-003,-2.46094e-001,5.75195e-001,1.06707e+001,-1.04268e+001,-1.34146e+000
-2.50095e-005,-7.82177e-005,-8.93555e-002,-2.79785e-001,5.96680e-001,1.43293e+001,-8.53659e+000,-1.15854e+000
-2.70237e-005,-5.45510e-005,-1.20117e-001,-2.94922e-001,6.10840e-001,1.64024e+001,-8.96342e+000,-9.14634e-001
-2.78630e-005,-3.37377e-005,-1.56738e-001,-3.14941e-001,6.36230e-001,1.85976e+001,-1.18293e+001,-4.87805e-001
-2.63523e-005,-1.93027e-005,-1.68945e-001,-3.22754e-001,6.64551e-001,1.93293e+001,-1.39634e+001,-6.09756e-001
-2.14847e-005,-1.52743e-005,-1.67480e-001,-3.21777e-001,6.88477e-001,1.88415e+001,-1.84756e+001,-1.64634e+000
-1.72885e-005,-4.53193e-006,-1.44043e-001,-2.98828e-001,7.67090e-001,1.76220e+001,-2.06707e+001,-2.07317e+000
-2.11490e-005,8.72816e-006,-1.15723e-001,-2.86133e-001,8.11035e-001,1.51829e+001,-2.40244e+001,-3.23171e+000
-2.28275e-005,1.25887e-005,-2.78320e-002,-2.55859e-001,8.92090e-001,1.45732e+001,-2.57317e+001,-3.53659e+000
-2.29953e-005,1.15816e-005,3.46680e-002,-2.34863e-001,9.25781e-001,1.22561e+001,-3.16463e+001,-2.43902e+000
-1.86313e-005,1.59457e-005,1.72852e-001,-1.98242e-001,9.67285e-001,1.12805e+001,-3.49390e+001,-1.76829e+000
-1.47707e-005,1.89670e-005,2.38770e-001,-1.69434e-001,9.70215e-001,1.03049e+001,-4.12805e+001,-3.04878e-001
-1.15816e-005,1.94705e-005,3.42773e-001,-1.13281e-001,9.71191e-001,9.75610e+000,-4.39024e+001,1.82927e-001
-1.15816e-005,2.23239e-005,3.78418e-001,-8.64258e-002,9.67773e-001,9.93902e+000,-4.66463e+001,9.14634e-001
-1.25887e-005,2.13169e-005,4.22363e-001,-3.51563e-002,9.73633e-001,9.75610e+000,-4.68293e+001,9.14634e-001
-1.62814e-005,2.01419e-005,4.28711e-001,-1.61133e-002,9.78516e-001,9.81707e+000,-4.42683e+001,1.46341e+000
-2.11490e-005,2.26596e-005,4.39941e-001,1.12305e-002,9.88281e-001,9.93902e+000,-3.89634e+001,2.25610e+000
-2.06455e-005,2.19883e-005,4.39453e-001,2.14844e-002,9.94141e-001,1.01829e+001,-3.59146e+001,3.41463e+000
-1.59457e-005,2.40024e-005,4.35547e-001,3.27148e-002,1.01904e+000,8.35366e+000,-2.72561e+001,5.97561e+000
-1.42672e-005,2.51774e-005,4.31152e-001,3.46680e-002,1.04053e+000,7.25610e+000,-2.13415e+001,7.98780e+000
-1.86313e-005,2.19883e-005,4.25781e-001,5.17578e-002,1.15234e+000,2.01220e+000,-6.76829e+000,1.11585e+001
-2.11490e-005,1.27565e-005,4.10156e-001,5.27344e-002,1.20605e+000,0.00000e+000,-5.48781e-001,1.26220e+001
-2.19883e-005,3.86053e-006,4.16016e-001,2.63672e-002,1.17920e+000,1.15854e+000,1.09756e+000,1.46341e+001
-2.36667e-005,-1.22530e-005,4.61914e-001,1.61133e-002,1.12256e+000,1.58537e+000,9.14634e-001,1.39634e+001
-1.62814e-005,-3.44091e-005,5.34180e-001,1.12305e-002,1.04297e+000,8.53659e-001,5.79268e+000,1.02439e+001
-8.72816e-006,-3.74304e-005,5.20020e-001,-4.39453e-003,1.03564e+000,0.00000e+000,8.96342e+000,7.62195e+000
-1.14137e-005,-3.50805e-005,4.83398e-001,-1.22070e-002,1.03564e+000,1.40244e+000,1.34146e+001,1.82927e+000
-2.56809e-005,-1.34279e-005,3.87695e-001,-3.71094e-002,1.02002e+000,2.98780e+000,1.53659e+001,-1.58537e+000
-2.56809e-005,-8.39246e-007,3.22754e-001,-4.73633e-002,1.00244e+000,6.40244e+000,1.87805e+001,-9.32927e+000
-9.56741e-006,-7.21752e-006,2.10449e-001,-8.15430e-002,9.78027e-001,6.40244e+000,1.84146e+001,-1.28659e+001
1.89670e-005,-2.04776e-005,1.65527e-001,-9.66797e-002,9.66797e-001,6.52439e+000,1.57317e+001,-1.85976e+001
3.45769e-005,-2.80308e-005,8.59375e-002,-1.26953e-001,9.36523e-001,5.79268e+000,1.24390e+001,-2.00610e+001
3.44091e-005,-1.89670e-005,6.25000e-002,-1.34766e-001,9.17969e-001,5.36585e+000,6.46341e+000,-2.12805e+001
2.29953e-005,-1.04067e-005,2.97852e-002,-1.43066e-001,8.81836e-001,4.39024e+000,4.20732e+000,-2.11585e+001
-6.71397e-007,-7.72107e-006,2.24609e-002,-1.45508e-001,8.75977e-001,1.70732e+000,5.48781e-001,-1.78659e+001
-1.54421e-005,-4.19623e-006,2.49023e-002,-1.57227e-001,8.84766e-001,6.09756e-001,-7.92683e-001,-1.57317e+001
-2.56809e-005,9.90310e-006,3.80859e-002,-1.64063e-001,8.82813e-001,-1.52439e+000,-2.98780e+000,-1.00000e+001
-4.28016e-005,5.08583e-005,7.81250e-002,-1.83105e-001,8.34473e-001,-1.70732e+000,-8.78049e+000,-4.51220e+000
-4.80049e-005,8.03998e-005,1.04980e-001,-1.91406e-001,7.93945e-001,-1.34146e+000,-1.25000e+001,-2.68293e+000
-4.75013e-005,8.27497e-005,1.25977e-001,-2.06055e-001,7.23145e-001,-1.21951e-001,-1.52439e+001,-9.14634e-001
-4.36408e-005,6.16007e-005,1.10840e-001,-2.13867e-001,7.11426e-001,4.26829e-001,-1.39634e+001,-6.09756e-002
-3.40734e-005,3.40734e-005,7.32422e-002,-2.40723e-001,7.24121e-001,1.95122e+000,-8.53659e+000,3.10976e+000
-3.47448e-005,2.93736e-005,5.51758e-002,-2.56348e-001,7.35840e-001,3.04878e+000,-6.40244e+000,4.57317e+000
-3.91089e-005,1.79599e-005,5.07813e-002,-2.91016e-001,7.45117e-001,5.79268e+000,-5.30488e+000,7.19512e+000
-4.19623e-005,-1.51064e-006,5.71289e-002,-3.00293e-001,7.28027e-001,7.74390e+000,-7.01220e+000,7.86585e+000
-3.23949e-005,-2.78630e-005,8.25195e-002,-3.12012e-001,6.67480e-001,1.07317e+001,-1.20732e+001,7.56098e+000
-1.72885e-005,-5.35439e-005,7.08008e-002,-3.10547e-001,6.18164e-001,1.19512e+001,-1.42073e+001,6.46341e+000
-1.64492e-005,-5.35439e-005,5.22461e-002,-3.01270e-001,5.97656e-001,1.53049e+001,-1.87805e+001,4.63415e+000
-2.18204e-005,-3.65911e-005,-5.37109e-003,-2.82715e-001,6.06445e-001,1.64024e+001,-1.98171e+001,3.53659e+000
-2.26596e-005,-1.89670e-005,-4.00391e-002,-2.74902e-001,6.37695e-001,1.80488e+001,-1.85366e+001,1.76829e+000
-2.03098e-005,-1.07424e-005,-9.27734e-002,-2.63184e-001,7.29492e-001,1.95122e+001,-1.72561e+001,1.28049e+000
-1.49386e-005,-1.34279e-006,-1.06445e-001,-2.61719e-001,7.85645e-001,1.98780e+001,-1.48780e+001,1.76829e+000
-7.55322e-006,6.21042e-006,-8.54492e-002,-2.35840e-001,8.73047e-001,1.95732e+001,-1.54878e+001,1.95122e+000
1.00710e-006,-8.22461e-006,-4.78516e-002,-2.12891e-001,9.18945e-001,1.70732e+001,-1.80488e+001,2.56098e+000
1.71206e-005,-2.40024e-005,7.08008e-002,-1.42578e-001,1.10791e+000,1.31707e+001,-1.84146e+001,2.86585e+000
4.53193e-005,-2.29953e-005,1.09863e-001,-1.23535e-001,1.20117e+000,3.53659e+000,-2.00000e+001,4.32927e+000
5.52224e-005,-1.69528e-005,2.52441e-001,-1.02539e-001,1.10645e+000,3.53659e+000,-2.72561e+001,6.03659e+000
4.11231e-005,-1.39315e-005,3.70605e-001,-6.98242e-002,1.01270e+000,6.21951e+000,-3.80488e+001,1.03049e+001
2.87022e-005,-7.21752e-006,5.30762e-001,-2.09961e-002,9.57520e-001,1.95122e+000,-2.64024e+001,1.48780e+001
1.44350e-005,9.23171e-006,5.56152e-001,-1.95313e-003,9.53613e-001,6.70732e-001,-2.10976e+001,1.79268e+001
5.03548e-007,1.25887e-005,5.98633e-001,2.00195e-002,9.49219e-001,3.29268e+000,-1.73780e+001,2.20122e+001
-1.05745e-005,1.67849e-007,5.91797e-001,2.53906e-002,9.45801e-001,6.09756e+000,-1.43293e+001,2.23780e+001
-1.71206e-005,-1.22530e-005,5.00000e-001,4.54102e-002,9.76074e-001,9.45122e+000,-3.17073e+000,2.03659e+001
-2.03098e-005,-2.58488e-005,4.37012e-001,5.46875e-002,1.02002e+000,8.84146e+000,2.74390e+000,1.87805e+001
-1.69528e-005,-2.14847e-005,3.37891e-001,5.17578e-002,1.11035e+000,6.82927e+000,1.00000e+001,1.54878e+001
-1.14137e-005,-1.86313e-005,3.09082e-001,4.49219e-002,1.13916e+000,5.48780e+000,1.09756e+001,1.39634e+001
-1.42672e-005,-1.89670e-005,3.20313e-001,3.27148e-002,1.14746e+000,3.29268e+000,8.71951e+000,1.17073e+001
-2.06455e-005,-8.89601e-006,3.76953e-001,2.19727e-002,1.13379e+000,2.19512e+000,7.25610e+000,1.08537e+001
-2.33310e-005,-2.51774e-006,4.03320e-001,1.22070e-002,1.13135e+000,1.21951e+000,5.60976e+000,8.23171e+000
-2.23239e-005,-6.21042e-006,4.37500e-001,-1.07422e-002,1.13135e+000,8.53659e-001,4.39024e+000,6.15854e+000
-2.56809e-005,-1.22530e-005,4.41406e-001,-1.95313e-002,1.14160e+000,4.87805e-001,2.80488e+000,9.75610e-001
-2.83665e-005,-1.12459e-005,4.16992e-001,-4.10156e-002,1.16260e+000,-3.65854e-001,2.25610e+000,-1.40244e+000
-2.46738e-005,-2.03098e-005,3.94043e-001,-5.07813e-002,1.15918e+000,-8.53659e-001,-8.53659e-001,-8.17073e+000
-1.96384e-005,-2.92058e-005,3.58887e-001,-5.66406e-002,1.10938e+000,-6.70732e-001,-4.39024e+000,-1.10976e+001
-2.09812e-005,-2.65202e-005,3.27148e-001,-5.66406e-002,1.07861e+000,-1.21951e+000,-1.09146e+001,-1.75610e+001
-2.31632e-005,-2.21561e-005,2.40723e-001,-5.17578e-002,1.01709e+000,-1.21951e+000,-1.22561e+001,-1.95122e+001
-1.35958e-005,-1.96384e-005,1.96289e-001,-5.41992e-002,9.98535e-001,-1.28049e+000,-1.31707e+001,-2.09756e+001
-1.15816e-005,-4.86763e-006,1.07422e-001,-6.93359e-002,1.00488e+000,-1.76829e+000,-1.14024e+001,-1.99390e+001
-2.04776e-005,1.00710e-006,7.42188e-002,-7.81250e-002,1.01855e+000,-2.43902e+000,-6.82927e+000,-1.54268e+001
-2.09812e-005,-7.21752e-006,3.61328e-002,-1.01074e-001,1.04639e+000,-3.96341e+000,-3.35366e+000,-8.59756e+000
-2.36667e-005,-7.88891e-006,4.44336e-002,-1.15723e-001,1.05420e+000,-5.67073e+000,-2.80488e+000,-4.69512e+000
-2.73594e-005,-1.07424e-005,8.49609e-002,-1.35742e-001,1.06641e+000,-9.39024e+000,-1.64634e+000,1.70732e+000
-1.76242e-005,-7.21752e-006,1.15234e-001,-1.47461e-001,1.07080e+000,-1.15854e+001,-3.04878e-001,4.20732e+000
-1.57778e-005,1.51064e-006,1.83105e-001,-1.67480e-001,1.05957e+000,-1.44512e+001,1.58537e+000,8.10976e+000
-2.16526e-005,1.51064e-006,2.18750e-001,-1.78711e-001,1.03125e+000,-1.48780e+001,1.95122e+000,9.20732e+000
-2.43381e-005,2.34989e-006,2.77344e-001,-1.95313e-001,9.03320e-001,-1.35976e+001,-4.26829e-001,8.96342e+000
-2.38346e-005,5.87472e-006,2.95898e-001,-2.03613e-001,8.09082e-001,-1.18902e+001,-1.82927e+000,7.68293e+000
-2.08133e-005,-1.04067e-005,2.75391e-001,-2.19238e-001,6.24023e-001,-8.10976e+000,2.43902e-001,5.18293e+000
-1.59457e-005,-2.70237e-005,1.79688e-001,-2.50000e-001,5.10254e-001,-5.54878e+000,4.39024e+000,4.93902e+000
-1.12459e-005,-1.99741e-005,1.17676e-001,-2.68555e-001,4.94629e-001,-2.43902e-001,1.57317e+001,7.74390e+000
-7.88891e-006,-1.27565e-005,1.02539e-002,-3.01270e-001,5.26855e-001,2.01220e+000,2.24390e+001,1.01220e+001
-4.86763e-006,-1.29244e-005,-2.63672e-002,-3.20801e-001,5.46875e-001,4.87805e+000,3.25610e+001,1.45732e+001
-4.19623e-006,-6.88182e-006,-5.17578e-002,-3.37891e-001,5.80078e-001,6.09756e+000,3.49390e+001,1.60366e+001
-5.20333e-006,1.17494e-006,-3.32031e-002,-3.47168e-001,6.03516e-001,6.89024e+000,3.64024e+001,1.61585e+001
-5.20333e-006,9.23171e-006,1.36719e-002,-3.51074e-001,6.54297e-001,7.07317e+000,3.56098e+001,1.45732e+001
-6.71397e-006,1.46029e-005,4.58984e-002,-3.48633e-001,6.62598e-001,8.29268e+000,2.93293e+001,1.01220e+001
-1.02388e-005,1.19173e-005,7.51953e-002,-3.42285e-001,6.51367e-001,8.96342e+000,2.34756e+001,6.58537e+000
-1.09102e-005,-1.12459e-005,6.49414e-002,-3.36426e-001,6.50391e-001,1.09146e+001,1.23780e+001,-9.14634e-001
-1.32601e-005,-2.23239e-005,-2.44141e-003,-3.24707e-001,6.63086e-001,1.17073e+001,8.04878e+000,-3.90244e+000
-1.10781e-005,-2.01419e-005,-5.02930e-002,-3.17871e-001,6.70410e-001,1.43902e+001,1.82927e+000,-6.95122e+000
-1.09102e-005,-1.93027e-005,-1.33789e-001,-3.11035e-001,6.57227e-001,1.73171e+001,-2.01220e+000,-5.42683e+000
-2.53452e-005,-1.00710e-006,-1.55762e-001,-3.02734e-001,6.40625e-001,1.84146e+001,-2.19512e+000,-3.71951e+000
-4.28016e-005,3.03807e-005,-1.51855e-001,-2.74414e-001,6.44531e-001,1.80488e+001,2.50000e+000,4.87805e-001
-4.44800e-005,5.35439e-005,-1.29395e-001,-2.56836e-001,6.77734e-001,1.65854e+001,5.91463e+000,2.07317e+000
-3.57519e-005,4.17945e-005,-5.17578e-002,-2.23633e-001,7.71484e-001,1.35976e+001,9.69512e+000,3.29268e+000
-3.00450e-005,1.69528e-005,4.88281e-004,-2.09961e-001,8.17871e-001,1.23780e+001,9.69512e+000,2.92683e+000
-2.71916e-005,-1.67849e-006,1.22070e-001,-1.80664e-001,8.83789e-001,1.06707e+001,9.51220e+000,1.40244e+000
-8.89601e-006,-1.98062e-005,1.74316e-001,-1.65039e-001,9.11621e-001,1.01220e+001,1.04268e+001,2.43902e-001
5.20333e-006,-3.03807e-005,2.46094e-001,-1.34766e-001,9.65820e-001,8.84146e+000,1.32317e+001,-9.75610e-001
1.35958e-005,-3.07164e-005,2.81250e-001,-9.91211e-002,1.00586e+000,8.53659e+000,1.46951e+001,-1.40244e+000
3.47448e-005,-2.87022e-005,3.00293e-001,-7.71484e-002,1.01611e+000,8.71951e+000,1.80488e+001,-1.70732e+000
4.14588e-005,-1.00710e-005,3.30078e-001,-4.29688e-002,1.02734e+000,8.35366e+000,2.05488e+001,-1.58537e+000
1.10781e-005,2.93736e-005,3.49609e-001,-2.83203e-002,1.03955e+000,8.47561e+000,2.65854e+001,-5.48781e-001
-1.17494e-005,6.66362e-005,3.94531e-001,-1.26953e-002,1.10986e+000,7.92683e+000,3.09756e+001,-1.21951e-001
-2.04776e-005,6.71397e-005,4.15527e-001,-1.07422e-002,1.15869e+000,6.03659e+000,3.88415e+001,9.75610e-001
-1.79599e-005,4.71656e-005,4.65332e-001,1.95313e-003,1.21484e+000,5.73171e+000,4.05488e+001,9.75610e-001
-1.29244e-005,2.19883e-005,4.92188e-001,6.83594e-003,1.21338e+000,6.34146e+000,3.69512e+001,-6.70732e-001
5.87472e-006,-8.22461e-006,5.22461e-001,3.41797e-002,1.18311e+000,6.82927e+000,3.38415e+001,-2.50000e+000
6.71397e-006,-2.97093e-005,5.06836e-001,4.34570e-002,1.16406e+000,8.17073e+000,2.84756e+001,-8.59756e+000
2.18204e-006,-2.63523e-005,4.09668e-001,6.49414e-002,1.13281e+000,8.78049e+000,2.64634e+001,-1.17073e+001
-6.54612e-006,-9.73526e-006,3.45215e-001,6.39648e-002,1.12354e+000,1.06707e+001,2.15244e+001,-1.85366e+001
-1.84634e-006,1.22530e-005,1.95801e-001,3.56445e-002,1.10303e+000,1.21951e+001,1.80488e+001,-2.30488e+001
4.86763e-006,2.01419e-005,1.18164e-001,1.17188e-002,1.09180e+000,1.26220e+001,1.62195e+001,-2.46951e+001
-2.34989e-006,1.84634e-005,-7.81250e-003,-3.75977e-002,1.05566e+000,1.20732e+001,1.06707e+001,-2.54878e+001
-1.46029e-005,5.70687e-006,-5.17578e-002,-6.05469e-002,1.02783e+000,1.11585e+001,5.79268e+000,-2.54878e+001
-1.93027e-005,-2.23239e-005,-1.00098e-001,-8.64258e-002,9.86816e-001,7.31707e+000,-5.12195e+000,-2.44512e+001
-1.62814e-005,-5.01869e-005,-1.11328e-001,-9.86328e-002,9.68750e-001,4.87805e+000,-1.10366e+001,-2.39634e+001
-1.29244e-005,-3.81018e-005,-1.12305e-001,-1.13281e-001,9.58984e-001,-3.65854e-001,-2.15244e+001,-2.04268e+001
-2.43381e-005,-1.29244e-005,-1.00098e-001,-1.20605e-001,9.65820e-001,-3.23171e+000,-2.53659e+001,-1.85366e+001
-5.01869e-005,9.56741e-006,-6.88477e-002,-1.40625e-001,9.62891e-001,-6.46341e+000,-3.09756e+001,-1.33537e+001
-4.98512e-005,2.18204e-005,-2.00195e-002,-1.65527e-001,8.83301e-001,-6.34146e+000,-3.45122e+001,-1.07927e+001
-4.71656e-005,1.77920e-005,-4.88281e-004,-1.77246e-001,8.11035e-001,-3.29268e+000,-4.42073e+001,-7.37805e+000
-4.46479e-005,-7.04967e-006,1.46484e-003,-1.90430e-001,6.73340e-001,-9.75610e-001,-4.87805e+001,-6.64634e+000
-2.78630e-005,-4.09552e-005,-2.29492e-002,-2.00195e-001,6.26465e-001,3.17073e+000,-5.26220e+001,-4.51220e+000
-2.19883e-005,-5.58938e-005,-1.01074e-001,-2.27539e-001,5.80566e-001,4.69512e+000,-5.31098e+001,-2.43902e+000
-2.23239e-005,-2.04776e-005,-1.37207e-001,-2.40723e-001,5.74219e-001,9.51220e+000,-4.93293e+001,1.95122e+000
-2.16526e-005,1.66171e-005,-1.92383e-001,-2.64648e-001,5.89355e-001,1.16463e+001,-4.65854e+001,4.51220e+000
-2.16526e-005,3.25628e-005,-2.01172e-001,-2.70020e-001,6.02051e-001,1.48780e+001,-4.18293e+001,9.26829e+000
-1.54421e-005,1.99741e-005,-2.00684e-001,-2.73926e-001,6.41602e-001,1.57317e+001,-4.00610e+001,1.10366e+001
-1.29244e-005,-1.25887e-005,-1.75781e-001,-2.66113e-001,6.71875e-001,1.53659e+001,-3.83537e+001,1.23171e+001
-1.39315e-005,-3.23949e-005,-1.07422e-001,-2.35840e-001,7.67090e-001,1.43902e+001,-3.75610e+001,1.20122e+001
-1.22530e-005,-3.67590e-005,-6.44531e-002,-2.25098e-001,8.29590e-001,1.07927e+001,-3.41463e+001,9.93902e+000
-1.64492e-005,-2.46738e-005,6.00586e-002,-1.94824e-001,9.49707e-001,7.37805e+000,-3.05488e+001,7.62195e+000
-2.51774e-005,2.85344e-006,1.36719e-001,-1.78711e-001,9.89746e-001,6.09756e+000,-3.01829e+001,6.70732e+000
-2.92058e-005,-1.17494e-006,3.14453e-001,-1.50879e-001,1.02393e+000,3.10976e+000,-3.14024e+001,6.34146e+000
-2.46738e-005,-1.02388e-005,4.04785e-001,-1.30371e-001,1.02881e+000,1.58537e+000,-3.10976e+001,7.13415e+000
-1.72885e-005,-1.52743e-005,5.51270e-001,-6.98242e-002,1.13867e+000,-6.82927e+000,-2.10976e+001,9.39024e+000
-1.44350e-005,-2.03098e-005,5.48828e-001,-6.10352e-002,1.18115e+000,-8.71951e+000,-1.85366e+001,1.15854e+001
-1.42672e-005,-1.77920e-005,5.97656e-001,-6.20117e-002,1.00439e+000,-3.04878e-001,-2.50000e+001,1.85976e+001
-1.66171e-005,-2.18204e-006,6.64551e-001,-4.05273e-002,8.83789e-001,3.04878e+000,-2.21341e+001,2.10976e+001
-2.06455e-005,1.39315e-005,7.02148e-001,-1.26953e-002,7.82227e-001,4.63415e+000,-2.37805e+000,2.42073e+001
-2.16526e-005,2.19883e-005,6.51367e-001,-1.02539e-002,8.30078e-001,4.69512e+000,4.08537e+000,2.56098e+001
-2.18204e-005,2.33310e-005,6.16699e-001,-1.70898e-002,8.79395e-001,6.70732e+000,9.75610e+000,2.51220e+001
-1.69528e-005,3.59197e-005,4.61914e-001,-1.90430e-002,9.36523e-001,8.90244e+000,1.20122e+001,2.27439e+001
-1.82956e-005,3.77661e-005,3.51074e-001,-2.09961e-002,9.55566e-001,1.19512e+001,1.51829e+001,1.66463e+001
-1.69528e-005,1.98062e-005,1.54297e-001,-2.49023e-002,9.98535e-001,1.24390e+001,1.59146e+001,1.25610e+001
-1.93027e-005,-7.88891e-006,8.30078e-002,-3.07617e-002,1.01465e+000,1.07317e+001,1.85366e+001,4.45122e+000
-1.64492e-005,-2.33310e-005,8.78906e-003,-5.12695e-002,1.05469e+000,8.78049e+000,1.95732e+001,1.21951e+000
-1.96384e-005,-7.21752e-006,9.27734e-003,-6.05469e-002,1.06982e+000,5.36585e+000,2.15244e+001,-2.50000e+000
-2.66880e-005,1.17494e-006,8.83789e-002,-7.71484e-002,1.08301e+000,3.65854e+000,2.10976e+001,-2.62195e+000
-2.71916e-005,1.09102e-005,1.57715e-001,-8.30078e-002,1.07520e+000,1.52439e+000,1.54268e+001,-1.34146e+000
-2.34989e-005,2.33310e-005,3.06641e-001,-7.51953e-002,1.05029e+000,4.87805e-001,1.12805e+001,-1.15854e+000
-1.82956e-005,3.07164e-005,3.64746e-001,-6.93359e-002,1.04395e+000,-1.09756e+000,3.35366e+000,-2.43902e+000
-1.76242e-005,2.13169e-005,4.32617e-001,-5.95703e-002,1.04736e+000,-3.04878e+000,-3.23171e+000,-5.54878e+000
-1.76242e-005,-1.35958e-005,4.44336e-001,-5.61523e-002,1.05713e+000,-3.47561e+000,-5.06098e+000,-7.74390e+000
-1.42672e-005,-5.65652e-005,4.21875e-001,-6.54297e-002,1.08398e+000,-4.51220e+000,-8.17073e+000,-1.37805e+001
-1.76242e-005,-8.34211e-005,3.93066e-001,-7.27539e-002,1.08496e+000,-3.96341e+000,-9.63415e+000,-1.62195e+001
-2.43381e-005,-7.33501e-005,3.28125e-001,-8.49609e-002,1.04785e+000,-2.13415e+000,-1.17073e+001,-2.00000e+001
-1.69528e-005,-1.37636e-005,2.84180e-001,-8.44727e-002,1.02051e+000,-1.52439e+000,-1.23780e+001,-2.10976e+001
-4.36408e-006,2.04776e-005,1.84570e-001,-8.30078e-002,9.72656e-001,2.43902e-001,-1.12805e+001,-2.06707e+001
-1.17494e-006,3.75982e-005,1.38672e-001,-8.44727e-002,9.63867e-001,-3.04878e-001,-9.63415e+000,-1.91463e+001
-7.21752e-006,4.61585e-005,5.61523e-002,-8.74023e-002,9.53125e-001,-8.53659e-001,-4.87805e+000,-1.45122e+001
-9.23171e-006,2.63523e-005,9.27734e-003,-9.91211e-002,9.53125e-001,-1.89024e+000,-2.31707e+000,-1.19512e+001
-1.00710e-005,-1.22530e-005,-1.46484e-003,-1.12793e-001,9.58496e-001,-3.29268e+000,2.68293e+000,-6.58537e+000
-1.32601e-005,-4.91798e-005,1.17188e-002,-1.33301e-001,9.67285e-001,-4.93902e+000,4.39024e+000,-4.57317e+000
-1.29244e-005,-6.76432e-005,3.41797e-002,-1.45020e-001,9.68262e-001,-6.09756e+000,7.13415e+000,-2.43902e-001
-8.39246e-006,-6.19364e-005,9.32617e-002,-1.64551e-001,9.59473e-001,-7.43902e+000,7.56098e+000,1.09756e+000
-9.90310e-006,-4.24659e-005,1.27441e-001,-1.73828e-001,9.51172e-001,-8.71951e+000,9.32927e+000,2.62195e+000
-1.25887e-005,-1.09102e-005,1.89941e-001,-1.92383e-001,9.20410e-001,-8.90244e+000,1.10976e+001,3.04878e+000
-1.15816e-005,3.13878e-005,2.16309e-001,-1.98730e-001,9.07227e-001,-8.96342e+000,1.45122e+001,3.29268e+000
-1.02388e-005,6.09293e-005,2.57813e-001,-2.09961e-001,8.74023e-001,-8.59756e+000,1.70122e+001,2.86585e+000
-6.21042e-006,6.02579e-005,2.62695e-001,-2.15332e-001,8.45215e-001,-6.64634e+000,2.18902e+001,2.13415e+000
-9.06386e-006,4.83406e-005,2.52930e-001,-2.23145e-001,7.43164e-001,-5.12195e+000,2.31098e+001,1.21951e+000
-1.46029e-005,1.64492e-005,2.44629e-001,-2.25098e-001,6.69922e-001,-9.14634e-001,2.12805e+001,-1.70732e+000
-1.29244e-005,-1.67849e-007,1.68457e-001,-2.25586e-001,5.49316e-001,3.78049e+000,2.26220e+001,-4.93902e+000
-1.02388e-005,-7.55322e-006,1.09375e-001,-2.29492e-001,5.32715e-001,5.79268e+000,2.56707e+001,-5.91463e+000
-1.52743e-005,-2.70237e-005,-2.83203e-002,-2.47070e-001,5.47363e-001,1.06707e+001,3.39024e+001,-4.87805e+000
-2.11490e-005,-2.81987e-005,-8.93555e-002,-2.60254e-001,5.55176e-001,1.26220e+001,3.65244e+001,-4.02439e+000
-2.13169e-005,-1.91348e-005,-1.75781e-001,-2.88574e-001,5.71777e-001,1.50610e+001,3.98780e+001,-1.89024e+000
-1.29244e-005,-1.66171e-005,-2.02148e-001,-3.00781e-001,5.85938e-001,1.50000e+001,3.93293e+001,-1.52439e+000
-7.04967e-006,-2.33310e-005,-1.99707e-001,-3.10547e-001,6.39648e-001,1.42683e+001,3.54268e+001,-2.31707e+000
-9.73526e-006,-2.43381e-005,-1.78223e-001,-3.11035e-001,6.73340e-001,1.29268e+001,3.18902e+001,-3.71951e+000
-8.56031e-006,-1.76242e-005,-1.33789e-001,-2.99805e-001,7.49023e-001,1.03659e+001,2.30488e+001,-7.62195e+000
-9.56741e-006,-1.82956e-005,-8.59375e-002,-2.77832e-001,8.15918e-001,9.45122e+000,1.83537e+001,-9.81707e+000
-1.15816e-005,-1.37636e-005,-5.90820e-002,-2.66113e-001,8.34961e-001,7.86585e+000,9.87805e+000,-1.31707e+001
-1.62814e-005,-1.00710e-006,-1.70898e-002,-2.37305e-001,8.62793e-001,7.80488e+000,7.13415e+000,-1.40244e+001
-2.24918e-005,-1.67849e-007,9.27734e-003,-2.22656e-001,8.66211e-001,7.56098e+000,1.70732e+000,-1.48171e+001
-2.06455e-005,1.05745e-005,6.78711e-002,-1.86035e-001,8.68164e-001,7.25610e+000,-4.87805e-001,-1.46951e+001
-2.16526e-005,3.40734e-005,9.13086e-002,-1.67969e-001,8.74023e-001,7.92683e+000,-3.23171e+000,-1.34756e+001
-1.96384e-005,4.14588e-005,1.39160e-001,-1.35254e-001,8.95996e-001,8.35366e+000,-4.14634e+000,-1.28049e+001
-1.49386e-005,3.94446e-005,1.60156e-001,-1.20117e-001,9.07227e-001,9.69512e+000,-6.34146e+000,-1.14634e+001
-1.37636e-005,3.40734e-005,1.93359e-001,-8.78906e-002,9.19922e-001,1.04268e+001,-7.62195e+000,-1.06098e+001
-1.61135e-005,5.20333e-006,2.08984e-001,-7.56836e-002,9.26758e-001,1.10366e+001,-9.08537e+000,-1.04268e+001
-1.91348e-005,-2.06455e-005,2.28027e-001,-5.17578e-002,9.33105e-001,1.14024e+001,-9.39024e+000,-1.05488e+001
-1.82956e-005,-4.81727e-005,2.28516e-001,-3.90625e-002,9.37500e-001,1.20122e+001,-8.47561e+000,-1.18293e+001
-1.46029e-005,-5.32082e-005,2.17285e-001,-1.95313e-002,9.44824e-001,1.23171e+001,-8.04878e+000,-1.34146e+001
-1.42672e-005,-4.38087e-005,2.05566e-001,-1.75781e-002,9.43848e-001,1.31098e+001,-7.31707e+000,-1.39024e+001
-1.12459e-005,-1.81277e-005,1.82617e-001,-1.02539e-002,9.57520e-001,1.45732e+001,-5.85366e+000,-1.43293e+001
-3.35698e-007,2.23239e-005,1.66992e-001,-9.76563e-003,9.61426e-001,1.52439e+001,-5.42683e+000,-1.46341e+001
3.86053e-006,1.05745e-005,1.42578e-001,-1.80664e-002,9.67285e-001,1.62805e+001,-5.48780e+000,-1.39024e+001
4.19623e-006,-2.18204e-005,1.36719e-001,-2.09961e-002,9.70703e-001,1.62195e+001,-6.70732e+000,-1.39634e+001
8.39246e-007,-1.67849e-006,1.25488e-001,-2.97852e-002,9.72656e-001,1.69512e+001,-1.07927e+001,-1.32927e+001
-1.67849e-007,2.33310e-005,1.25000e-001,-3.27148e-002,9.66309e-001,1.70122e+001,-1.31707e+001,-1.31707e+001
2.34989e-006,4.78370e-005,1.20605e-001,-4.10156e-002,9.66309e-001,1.78659e+001,-1.62195e+001,-1.22561e+001
-2.51774e-006,5.82437e-005,1.19141e-001,-4.68750e-002,9.88770e-001,1.79878e+001,-1.75610e+001,-1.21341e+001
-9.56741e-006,2.26596e-005,1.21582e-001,-5.27344e-002,1.00146e+000,1.96951e+001,-1.81707e+001,-1.12195e+001
-1.49386e-005,-1.52743e-005,1.29883e-001,-6.00586e-002,1.01123e+000,2.02439e+001,-1.86585e+001,-1.09756e+001
-1.69528e-005,-1.93027e-005,1.36719e-001,-5.90820e-002,1.00635e+000,2.04268e+001,-1.83537e+001,-9.69512e+000
-1.59457e-005,-1.12459e-005,1.42090e-001,-1.31836e-002,1.10010e+000,1.88415e+001,-1.56707e+001,-9.02439e+000
-1.69528e-005,-2.43381e-005,1.00098e-001,2.92969e-003,1.20703e+000,8.35366e+000,-6.28049e+000,-6.89024e+000
-1.61135e-005,-3.50805e-005,7.08008e-002,-1.41602e-002,1.16504e+000,7.01220e+000,-7.92683e+000,-4.26829e+000
-1.54421e-005,-2.60166e-005,1.45020e-001,-1.07422e-002,1.03613e+000,1.09146e+001,-1.78659e+001,-7.92683e-001
-1.29244e-005,-9.06386e-006,2.79297e-001,-9.76563e-004,8.99414e-001,9.32927e+000,-1.51829e+001,-1.03659e+000
-1.05745e-005,5.23690e-005,3.08594e-001,-6.34766e-003,9.16504e-001,2.50000e+000,-3.35366e+000,-6.09756e-002
-1.22530e-005,1.17327e-004,3.72559e-001,-2.39258e-002,9.30176e-001,1.52439e+000,-2.68293e+000,1.15854e+000
-1.82956e-005,8.44282e-005,4.01855e-001,-3.27148e-002,9.15039e-001,1.34146e+000,-7.86585e+000,2.13415e+000
-2.09812e-005,2.66880e-005,3.64258e-001,-5.81055e-002,8.80859e-001,3.59756e+000,-6.21951e+000,1.40244e+000
-1.40993e-005,3.86053e-006,3.04199e-001,-7.37305e-002,8.81348e-001,5.24390e+000,-4.08537e+000,5.48781e-001
-1.29244e-005,-2.60166e-005,2.00684e-001,-1.02539e-001,8.93066e-001,5.30488e+000,-2.62195e+000,-2.56098e+000
-1.86313e-005,-4.49836e-005,1.59180e-001,-1.16699e-001,8.96973e-001,4.93902e+000,-2.31707e+000,-4.93902e+000
-2.36667e-005,-5.13619e-005,1.12305e-001,-1.35254e-001,9.10156e-001,3.10976e+000,-3.04878e+000,-7.98780e+000
-2.63523e-005,-5.00191e-005,1.06445e-001,-1.40625e-001,9.16992e-001,2.07317e+000,-4.02439e+000,-8.96342e+000
-3.27306e-005,-3.67590e-005,1.43066e-001,-1.44531e-001,9.11133e-001,1.58537e+000,-5.67073e+000,-8.10976e+000
-3.30663e-005,-3.44091e-005,1.89941e-001,-1.36719e-001,8.82813e-001,2.01220e+000,-7.43902e+000,-7.31707e+000
-2.63523e-005,-3.99481e-005,2.10938e-001,-1.29395e-001,8.66699e-001,1.52439e+000,-1.24390e+001,-6.52439e+000
-2.13169e-005,-4.06195e-005,2.34375e-001,-1.22070e-001,8.69141e-001,1.21951e+000,-1.37195e+001,-6.15854e+000
-1.72885e-005,-4.48157e-005,2.37305e-001,-1.24023e-001,8.72559e-001,6.09756e-001,-1.58537e+001,-7.37805e+000
-1.02388e-005,-5.16976e-005,2.25586e-001,-1.25000e-001,8.89160e-001,6.09756e-002,-1.60366e+001,-7.80488e+000
-6.71397e-006,-5.23690e-005,2.18750e-001,-1.24023e-001,9.07227e-001,1.82927e-001,-1.48171e+001,-9.32927e+000
-4.86763e-006,-3.37377e-005,1.92383e-001,-1.17676e-001,9.33105e-001,1.21951e-001,-1.39024e+001,-1.00000e+001
2.18204e-006,-1.69528e-005,1.81641e-001,-1.16211e-001,9.41895e-001,3.65854e-001,-1.16463e+001,-9.93902e+000
7.72107e-006,-5.87472e-006,1.66504e-001,-1.06934e-001,9.63379e-001,-3.04878e-001,-1.07927e+001,-9.57317e+000
7.38537e-006,1.49386e-005,1.66504e-001,-1.07422e-001,9.65820e-001,-1.21951e+000,-8.35366e+000,-8.65854e+000
1.67849e-006,1.59457e-005,1.80664e-001,-9.91211e-002,9.58984e-001,-1.64634e+000,-7.50000e+000,-8.23171e+000
-1.02388e-005,-4.19623e-006,1.88477e-001,-9.66797e-002,9.30176e-001,-1.95122e+000,-7.56098e+000,-7.74390e+000
-2.65202e-005,-4.86763e-006,1.94336e-001,-1.04492e-001,8.24219e-001,-1.46341e+000,-9.39024e+000,-8.10976e+000
-3.44091e-005,-1.67849e-006,1.89941e-001,-1.08398e-001,7.63672e-001,9.75610e-001,-1.32317e+001,-1.00610e+001
-3.40734e-005,-5.70687e-006,1.29395e-001,-1.19141e-001,6.75293e-001,3.96341e+000,-1.02439e+001,-1.17073e+001
-2.65202e-005,-1.52743e-005,6.83594e-002,-1.25977e-001,6.67480e-001,5.06098e+000,-6.70732e+000,-1.17073e+001
-2.31632e-005,-9.56741e-006,-4.34570e-002,-1.39648e-001,6.96289e-001,6.52439e+000,9.75610e-001,-9.57317e+000
-1.81277e-005,-2.01419e-006,-8.30078e-002,-1.45996e-001,7.20703e-001,6.76829e+000,4.57317e+000,-8.10976e+000
-1.29244e-005,2.40024e-005,-1.27441e-001,-1.58203e-001,7.76367e-001,6.15854e+000,1.02439e+001,-5.67073e+000
-1.49386e-005,5.18654e-005,-1.17188e-001,-1.66992e-001,8.01758e-001,5.00000e+000,1.17683e+001,-4.63415e+000
-1.34279e-005,3.60876e-005,-4.49219e-002,-1.66016e-001,8.69629e-001,1.46341e+000,1.25610e+001,-3.65854e+000
-1.02388e-005,2.13169e-005,6.68945e-002,-1.50391e-001,9.08203e-001,-1.15854e+000,1.18293e+001,-3.23171e+000
-8.22461e-006,2.31632e-005,1.24512e-001,-1.40625e-001,9.05762e-001,-4.45122e+000,1.00610e+001,-3.71951e+000
-6.71397e-006,1.35958e-005,2.36328e-001,-1.20117e-001,8.95996e-001,-5.79268e+000,9.20732e+000,-4.14634e+000
-6.21042e-006,5.37118e-006,2.79785e-001,-1.12305e-001,8.92578e-001,-6.58537e+000,1.01220e+001,-5.42683e+000
-3.18914e-006,7.21752e-006,3.45215e-001,-1.19629e-001,8.93555e-001,-5.91463e+000,1.07927e+001,-6.15854e+000
-3.86053e-006,1.25887e-005,3.58398e-001,-1.22559e-001,8.93066e-001,-3.53659e+000,1.09146e+001,-7.86585e+000
-4.53193e-006,2.06455e-005,3.50098e-001,-1.27441e-001,8.83301e-001,-1.34146e+000,1.04878e+001,-8.78049e+000
-6.88182e-006,1.39315e-005,3.25684e-001,-1.29883e-001,8.71094e-001,3.78049e+000,9.02439e+000,-1.14024e+001
-4.53193e-006,1.25887e-005,2.32910e-001,-1.22559e-001,8.52539e-001,5.97561e+000,8.29268e+000,-1.26220e+001
-1.49386e-005,9.90310e-006,1.79688e-001,-1.24023e-001,8.47168e-001,9.26829e+000,6.09756e+000,-1.40244e+001
-2.11490e-005,-1.20851e-005,8.69141e-002,-1.30371e-001,8.55957e-001,1.09756e+001,5.06098e+000,-1.38415e+001
-1.89670e-005,-2.26596e-005,4.98047e-002,-1.33301e-001,8.64258e-001,1.15244e+001,7.31707e-001,-1.39024e+001
-8.22461e-006,-1.02388e-005,-2.92969e-003,-1.41113e-001,8.91602e-001,1.12805e+001,-7.92683e-001,-1.38415e+001
-6.88182e-006,-1.67849e-005,-1.12305e-002,-1.47461e-001,9.06738e-001,1.00610e+001,-3.59756e+000,-1.29878e+001
-6.54612e-006,-6.26078e-005,-1.07422e-002,-1.45508e-001,9.34570e-001,8.29268e+000,-6.46341e+000,-1.21951e+001
-1.32601e-005,-7.87213e-005,5.37109e-003,-1.37207e-001,9.54102e-001,7.80488e+000,-7.43902e+000,-1.20732e+001
-2.66880e-005,-6.46220e-005,5.90820e-002,-1.29883e-001,9.73633e-001,5.85366e+000,-9.57317e+000,-1.03659e+001
-3.99481e-005,-4.83406e-005,9.52148e-002,-1.20117e-001,9.83398e-001,5.42683e+000,-1.06098e+001,-9.39024e+000
-5.75723e-005,-1.79599e-005,1.61133e-001,-1.05957e-001,9.98047e-001,4.45122e+000,-1.26220e+001,-7.80488e+000
-4.78370e-005,3.60876e-005,1.92383e-001,-9.52148e-002,1.00684e+000,4.32927e+000,-1.37195e+001,-7.07317e+000
-1.30922e-005,5.99222e-005,2.36328e-001,-7.66602e-002,1.03174e+000,3.47561e+000,-1.50000e+001,-4.93902e+000
7.72107e-006,3.70947e-005,2.76855e-001,-6.10352e-002,1.05273e+000,3.35366e+000,-1.56098e+001,-3.65854e+000
7.72107e-006,1.17494e-006,2.91016e-001,-5.32227e-002,1.06396e+000,3.17073e+000,-1.77439e+001,-1.82927e+000
9.23171e-006,-4.19623e-006,3.10059e-001,-4.34570e-002,1.06787e+000,3.47561e+000,-1.92683e+001,-9.14634e-001
1.42672e-005,-5.03548e-007,3.18848e-001,-3.90625e-002,1.06543e+000,3.47561e+000,-2.15244e+001,2.43902e-001
1.17494e-006,3.35698e-007,3.26172e-001,-3.41797e-002,1.05811e+000,2.92683e+000,-2.24390e+001,4.87805e-001
-1.67849e-007,-6.71397e-006,3.21289e-001,-3.36914e-002,1.05713e+000,3.84146e+000,-2.23780e+001,3.04878e-001
1.42672e-005,-1.91348e-005,3.05176e-001,-4.19922e-002,1.03662e+000,3.78049e+000,-2.18902e+001,2.43902e-001
1.82956e-005,-2.43381e-005,2.90527e-001,-4.78516e-002,1.02734e+000,4.14634e+000,-2.04878e+001,-2.43902e-001
1.64492e-005,-2.70237e-005,2.54395e-001,-5.76172e-002,9.99512e-001,4.57317e+000,-1.89024e+001,-4.87805e-001
1.25887e-005,-2.04776e-005,2.36816e-001,-6.54297e-002,9.80957e-001,4.69512e+000,-1.52439e+001,-6.70732e-001
5.53903e-006,-7.21752e-006,2.05078e-001,-7.42188e-002,9.49707e-001,4.02439e+000,-1.35976e+001,-7.92683e-001
3.52483e-006,-1.51064e-006,1.90430e-001,-8.39844e-002,9.50195e-001,2.68293e+000,-1.00610e+001,-1.34146e+000
-8.22461e-006,9.56741e-006,1.84082e-001,-1.02051e-001,9.37500e-001,1.58537e+000,-7.43902e+000,-9.14634e-001
-1.42672e-005,1.98062e-005,1.78223e-001,-1.14258e-001,9.30664e-001,9.75610e-001,-7.01220e+000,-9.14634e-001
-9.90310e-006,1.96384e-005,1.89941e-001,-1.26953e-001,9.11621e-001,4.87805e-001,-5.79268e+000,-1.82927e-001
-8.22461e-006,1.25887e-005,1.95801e-001,-1.30371e-001,8.95508e-001,7.31707e-001,-4.63415e+000,1.82927e-001
-1.69528e-005,-1.02388e-005,2.02637e-001,-1.31836e-001,8.80859e-001,4.26829e-001,-2.07317e+000,1.52439e+000
-2.53452e-005,-2.38346e-005,2.08008e-001,-1.33301e-001,8.71582e-001,6.09756e-001,-6.09756e-001,2.25610e+000
-3.57519e-005,-3.02129e-006,2.12402e-001,-1.38672e-001,8.33496e-001,1.52439e+000,-1.09756e+000,3.04878e+000
-2.70237e-005,2.31632e-005,2.08984e-001,-1.41602e-001,7.94434e-001,2.62195e+000,-3.53659e+000,2.56098e+000
-2.50095e-005,3.64233e-005,1.91895e-001,-1.45020e-001,7.05078e-001,5.18293e+000,-6.40244e+000,1.82927e-001
-3.00450e-005,2.78630e-005,1.22559e-001,-1.53809e-001,6.69922e-001,5.91463e+000,-6.82927e+000,-1.03659e+000
-3.37377e-005,2.24918e-005,8.49609e-002,-1.59668e-001,6.78711e-001,7.98780e+000,-4.32927e+000,-1.64634e+000
-3.17235e-005,2.97093e-005,1.80664e-002,-1.84570e-001,7.24609e-001,8.65854e+000,-2.50000e+000,-1.46341e+000
-2.26596e-005,2.60166e-005,-2.44141e-003,-1.94336e-001,7.55371e-001,9.51220e+000,-4.26829e-001,-3.04878e-001
-2.46738e-005,1.86313e-005,-1.95313e-002,-2.19727e-001,7.90527e-001,1.04268e+001,-3.04878e-001,2.43902e-001
-2.65202e-005,1.93027e-005,-1.56250e-002,-2.28027e-001,7.87109e-001,1.18293e+001,-5.18293e+000,9.75610e-001
-2.43381e-005,1.57778e-005,4.88281e-004,-2.17285e-001,7.67578e-001,1.17683e+001,-9.45122e+000,1.09756e+000
-3.23949e-005,-9.56741e-006,3.90625e-003,-2.04590e-001,7.64160e-001,1.24390e+001,-1.71341e+001,-5.48781e-001
-4.68299e-005,-3.92767e-005,-2.44141e-003,-1.73340e-001,7.82227e-001,1.15854e+001,-2.01829e+001,-1.52439e+000
-4.85084e-005,-4.61585e-005,-1.46484e-003,-1.64063e-001,8.06641e-001,1.04878e+001,-2.39024e+001,-3.10976e+000
-3.13878e-005,-4.64942e-005,1.46484e-002,-1.60645e-001,8.74023e-001,1.02439e+001,-2.51829e+001,-3.47561e+000
1.84634e-006,-2.66880e-005,3.36914e-002,-1.60645e-001,9.04297e-001,9.69512e+000,-2.73780e+001,-3.35366e+000
1.19173e-005,-3.17235e-005,9.22852e-002,-1.55762e-001,9.49707e-001,9.26829e+000,-2.99390e+001,-2.86585e+000
1.34279e-006,-4.49836e-005,1.29395e-001,-1.51367e-001,9.63379e-001,9.63415e+000,-3.10366e+001,-2.31707e+000
-5.53903e-006,-3.60876e-005,2.06543e-001,-1.01074e-001,1.04736e+000,6.15854e+000,-3.05488e+001,-2.37805e+000
-1.14137e-005,-2.16526e-005,2.11426e-001,-7.22656e-002,1.12891e+000,2.68293e+000,-2.79878e+001,-1.89024e+000
-2.29953e-005,-6.37827e-006,1.90918e-001,-4.29688e-002,1.12695e+000,3.29268e+000,-3.02439e+001,2.43902e-001
-2.90379e-005,1.17494e-006,2.29004e-001,-2.34375e-002,1.03662e+000,5.24390e+000,-3.07927e+001,2.25610e+000
-2.26596e-005,1.67849e-006,3.18359e-001,1.07422e-002,9.08203e-001,4.45122e+000,-1.96341e+001,5.60976e+000
-1.59457e-005,2.21561e-005,3.48633e-001,7.81250e-003,9.10645e-001,2.19512e+000,-1.31098e+001,7.92683e+000
-1.15816e-005,2.70237e-005,4.15039e-001,-2.92969e-003,9.57520e-001,-1.21951e-001,-1.03659e+001,1.44512e+001
-8.56031e-006,1.39315e-005,4.77051e-001,-3.17383e-002,9.81445e-001,4.87805e-001,-1.15854e+001,1.71951e+001
-9.56741e-006,-1.02388e-005,4.74121e-001,-4.05273e-002,9.82422e-001,5.18293e+000,-1.12805e+001,1.96341e+001
-1.02388e-005,-1.09102e-005,4.03809e-001,-4.54102e-002,1.00537e+000,6.28049e+000,-9.81707e+000,1.96951e+001
-2.19883e-005,-1.51064e-006,3.61328e-001,-4.63867e-002,1.02539e+000,7.01220e+000,-5.36585e+000,1.75610e+001
-4.11231e-005,-6.21042e-006,2.87598e-001,-3.75977e-002,1.05762e+000,6.09756e+000,-3.29268e+000,1.58537e+001
-4.17945e-005,1.76242e-005,2.68066e-001,-3.95508e-002,1.07324e+000,2.86585e+000,2.56098e+000,1.24390e+001
-4.14588e-005,3.64233e-005,2.87109e-001,-5.46875e-002,1.07617e+000,2.01220e+000,4.75610e+000,1.18902e+001
-3.10521e-005,1.25887e-005,3.27148e-001,-5.56641e-002,1.05908e+000,1.21951e+000,6.70732e+000,1.18293e+001
-1.77920e-005,-2.04776e-005,4.05762e-001,-5.51758e-002,1.02002e+000,1.64634e+000,6.40244e+000,1.18293e+001
-1.89670e-005,-3.84375e-005,4.39453e-001,-5.27344e-002,1.00000e+000,2.56098e+000,5.79268e+000,1.10366e+001
-2.09812e-005,-2.63523e-005,4.56055e-001,-5.85938e-002,1.00049e+000,2.92683e+000,5.79268e+000,9.93902e+000
-1.99741e-005,4.53193e-006,4.48730e-001,-6.93359e-002,1.00977e+000,4.63415e+000,6.89024e+000,7.01220e+000
-1.69528e-005,2.66880e-005,3.99902e-001,-7.95898e-002,1.01953e+000,6.21951e+000,6.52439e+000,2.56098e+000
-1.56100e-005,3.79339e-005,3.74512e-001,-8.69141e-002,1.01270e+000,6.21951e+000,5.73171e+000,1.21951e-001
-1.35958e-005,4.31373e-005,3.02246e-001,-8.34961e-002,9.78027e-001,4.63415e+000,3.84146e+000,-4.26829e+000
-1.40993e-005,2.93736e-005,2.68066e-001,-8.25195e-002,9.70215e-001,3.17073e+000,2.80488e+000,-5.85366e+000
-1.02388e-005,7.88891e-006,2.07520e-001,-8.25195e-002,9.54102e-001,1.28049e+000,-5.48781e-001,-7.19512e+000
-7.21752e-006,2.51774e-006,1.86523e-001,-8.49609e-002,9.34570e-001,1.82927e-001,-2.25610e+000,-7.01220e+000
-9.90310e-006,3.02129e-006,1.55762e-001,-9.71680e-002,8.96484e-001,-1.46341e+000,-2.74390e+000,-5.97561e+000
-1.29244e-005,1.09102e-005,1.38184e-001,-1.07910e-001,8.89648e-001,-2.01220e+000,-2.01220e+000,-4.26829e+000
-2.11490e-005,2.40024e-005,1.08398e-001,-1.34766e-001,8.83301e-001,-2.31707e+000,1.28049e+000,-5.48781e-001
-2.56809e-005,2.60166e-005,1.07910e-001,-1.47461e-001,8.86719e-001,-2.50000e+000,3.78049e+000,1.64634e+000
-2.03098e-005,-1.67849e-007,1.10352e-001,-1.58691e-001,8.92578e-001,-4.32927e+000,7.37805e+000,4.87805e+000
-1.69528e-005,-1.22530e-005,1.30859e-001,-1.72363e-001,8.82813e-001,-4.81707e+000,8.59756e+000,5.91463e+000
-1.51064e-005,-1.22530e-005,1.43066e-001,-1.71387e-001,8.81348e-001,-5.42683e+000,1.06707e+001,6.52439e+000
-1.29244e-005,-3.77661e-005,1.67969e-001,-1.77734e-001,8.78418e-001,-6.64634e+000,1.20732e+001,6.52439e+000
-1.39315e-005,-5.42153e-005,1.76270e-001,-1.80664e-001,8.85254e-001,-6.95122e+000,1.64634e+001,6.15854e+000
-1.72885e-005,-5.99222e-005,1.92383e-001,-1.76270e-001,8.91113e-001,-6.28049e+000,1.91463e+001,5.85366e+000
-1.64492e-005,-6.19364e-005,1.98242e-001,-1.76758e-001,8.88672e-001,-5.12195e+000,2.31707e+001,4.87805e+000
-1.66171e-005,-5.25368e-005,2.07520e-001,-1.76758e-001,8.92578e-001,-4.39024e+000,2.53659e+001,3.78049e+000
-1.46029e-005,-4.24659e-005,2.12891e-001,-1.78711e-001,8.99414e-001,-4.08537e+000,3.07927e+001,1.03659e+000
-1.19173e-005,-3.45769e-005,2.06055e-001,-1.79688e-001,9.10645e-001,-4.45122e+000,3.27439e+001,-1.21951e-001
-1.25887e-005,-3.12200e-005,2.03125e-001,-1.80176e-001,9.02344e-001,-2.62195e+000,3.58537e+001,-2.56098e+000
-1.29244e-005,-2.66880e-005,1.83105e-001,-1.77734e-001,8.49609e-001,-1.58537e+000,3.53659e+001,-5.24390e+000
-1.22530e-005,-2.36667e-005,1.70898e-001,-1.78223e-001,8.24219e-001,-2.43902e-001,3.54878e+001,-6.46341e+000
-1.29244e-005,-1.05745e-005,1.09375e-001,-1.64551e-001,7.69531e-001,1.52439e+000,3.73171e+001,-8.53659e+000
-1.22530e-005,-1.51064e-006,7.91016e-002,-1.62109e-001,7.78809e-001,1.34146e+000,3.96951e+001,-8.78049e+000
-1.42672e-005,3.35698e-007,-4.88281e-004,-1.68457e-001,8.19824e-001,1.40244e+000,4.45122e+001,-6.28049e+000
-1.35958e-005,6.21042e-006,-2.78320e-002,-1.75293e-001,8.08105e-001,1.34146e+000,4.53049e+001,-4.57317e+000
-8.22461e-006,1.30922e-005,-4.05273e-002,-1.84082e-001,7.60254e-001,2.74390e+000,4.46951e+001,-2.37805e+000
-1.05745e-005,1.79599e-005,-2.83203e-002,-1.99219e-001,7.36328e-001,2.80488e+000,4.36585e+001,-1.34146e+000
-9.73526e-006,9.90310e-006,2.14844e-002,-2.19727e-001,7.28027e-001,2.31707e+000,4.01220e+001,-3.04878e-001
-1.17494e-005,1.05745e-005,7.17773e-002,-2.31934e-001,7.76367e-001,1.89024e+000,3.70122e+001,-3.04878e-001
-1.46029e-005,1.51064e-006,8.44727e-002,-2.34375e-001,8.05664e-001,2.01220e+000,2.95732e+001,-1.58537e+000
-1.59457e-005,-1.32601e-005,8.74023e-002,-2.09473e-001,8.54980e-001,1.64634e+000,2.48780e+001,-2.25610e+000
-1.72885e-005,-1.71206e-005,7.32422e-002,-1.97266e-001,8.70117e-001,2.37805e+000,1.68902e+001,-4.32927e+000
-1.62814e-005,-1.51064e-005,3.17383e-002,-1.81152e-001,8.93555e-001,3.41463e+000,1.29268e+001,-5.06098e+000
-1.66171e-005,-1.72885e-005,1.12305e-002,-1.66992e-001,8.99414e-001,5.06098e+000,3.96341e+000,-5.60976e+000
-1.81277e-005,-3.00450e-005,-1.41602e-002,-1.40137e-001,8.95996e-001,5.79268e+000,-1.82927e-001,-5.67073e+000
-1.62814e-005,-3.17235e-005,-2.92969e-002,-1.28418e-001,8.90625e-001,7.31707e+000,-6.58537e+000,-5.42683e+000
-1.05745e-005,-8.89601e-006,-5.12695e-002,-1.06445e-001,8.74023e-001,8.35366e+000,-8.90244e+000,-5.18293e+000
-3.86053e-006,1.52743e-005,-5.51758e-002,-9.96094e-002,8.63770e-001,9.93902e+000,-1.32927e+001,-4.32927e+000
2.18204e-006,1.12459e-005,-5.37109e-002,-8.49609e-002,8.58398e-001,1.11585e+001,-1.50000e+001,-4.39024e+000
8.39246e-007,2.51774e-006,-4.44336e-002,-8.44727e-002,8.65234e-001,1.18293e+001,-1.82317e+001,-4.08537e+000
-1.84634e-006,1.39315e-005,-1.95313e-002,-8.25195e-002,9.06738e-001,1.18902e+001,-2.16463e+001,-3.84146e+000
-1.35958e-005,3.87732e-005,-3.41797e-003,-7.95898e-002,9.30176e-001,1.16463e+001,-2.39024e+001,-3.53659e+000
-1.86313e-005,4.91798e-005,4.24805e-002,-6.98242e-002,9.66309e-001,1.12195e+001,-3.00000e+001,-2.37805e+000
-1.42672e-005,3.94446e-005,6.83594e-002,-6.15234e-002,9.74121e-001,1.03659e+001,-3.36585e+001,-1.40244e+000
-1.19173e-005,1.12459e-005,1.25488e-001,-5.51758e-002,1.00293e+000,9.93902e+000,-3.96341e+001,3.04878e-001
-1.49386e-005,-8.05676e-006,1.57227e-001,-4.58984e-002,1.01025e+000,9.93902e+000,-4.28049e+001,1.03659e+000
-1.62814e-005,-5.03548e-006,2.12402e-001,-3.80859e-002,1.02832e+000,1.00610e+001,-4.51829e+001,2.13415e+000
-1.32601e-005,3.02129e-006,2.37793e-001,-3.51563e-002,1.03467e+000,1.01220e+001,-4.49390e+001,2.92683e+000
-1.30922e-005,8.39246e-007,2.76367e-001,-3.17383e-002,1.04785e+000,9.63415e+000,-4.34756e+001,4.87805e+000
-1.93027e-005,5.87472e-006,3.23730e-001,-1.85547e-002,1.04297e+000,9.57317e+000,-4.23171e+001,6.52439e+000
-1.76242e-005,4.53193e-006,3.57422e-001,1.26953e-002,1.09717e+000,4.93902e+000,-3.39024e+001,9.87805e+000
-9.06386e-006,6.21042e-006,3.05664e-001,4.83398e-002,1.32471e+000,-2.13415e+000,-2.54268e+001,1.20122e+001
-2.85344e-006,4.53193e-006,2.80762e-001,2.44141e-002,1.31934e+000,-5.97561e+000,-2.52439e+001,1.82317e+001
-1.25887e-005,1.67849e-006,4.38477e-001,2.09961e-002,1.07031e+000,-2.07317e+000,-3.03049e+001,2.15854e+001
-2.21561e-005,3.86053e-006,5.13184e-001,2.68555e-002,1.00586e+000,-2.56098e+000,-2.00000e+001,2.25000e+001
-2.83665e-005,1.79599e-005,5.42480e-001,2.34375e-002,1.01074e+000,-5.30488e+000,-1.18293e+001,2.23780e+001
-2.29953e-005,3.47448e-005,5.66895e-001,1.95313e-002,1.02002e+000,-8.84146e+000,-7.31707e+000,2.29268e+001
-1.17494e-006,4.06195e-005,5.67383e-001,-1.22070e-002,1.00000e+000,-8.90244e+000,-5.79268e+000,2.27439e+001
-1.17494e-006,2.73594e-005,5.12207e-001,-2.73438e-002,9.72656e-001,-3.23171e+000,3.90244e+000,1.78659e+001
-2.50095e-005,2.85344e-006,3.44238e-001,-6.29883e-002,9.23340e-001,-4.26829e-001,8.65854e+000,1.43293e+001
-1.69528e-005,-2.24918e-005,2.61719e-001,-8.20313e-002,9.15039e-001,1.89024e+000,1.26829e+001,5.91463e+000
4.53193e-006,-3.20592e-005,1.21582e-001,-1.30371e-001,9.02832e-001,2.43902e+000,1.06098e+001,-2.50000e+000
1.84634e-006,-2.09812e-005,6.15234e-002,-1.48926e-001,8.90625e-001,2.25610e+000,9.26829e+000,-6.21951e+000
-5.20333e-006,-1.19173e-005,-2.73438e-002,-1.66504e-001,8.44727e-001,1.89024e+000,5.00000e+000,-1.07927e+001
-2.85344e-006,-1.15816e-005,-5.61523e-002,-1.69434e-001,8.23242e-001,9.14634e-001,2.80488e+000,-1.17073e+001
-1.34279e-005,1.25887e-005,-9.08203e-002,-1.72363e-001,8.06152e-001,7.92683e-001,-1.28049e+000,-1.15244e+001
-2.83665e-005,4.07874e-005,-9.71680e-002,-1.67969e-001,8.02246e-001,2.43902e-001,-3.71951e+000,-1.02439e+001
-4.59907e-005,3.12200e-005,-8.05664e-002,-1.58691e-001,8.06641e-001,-1.89024e+000,-8.84146e+000,-6.46341e+000
-5.58938e-005,2.46738e-005,-5.46875e-002,-1.53809e-001,8.23730e-001,-4.57317e+000,-1.10976e+001,-4.14634e+000
-2.76951e-005,7.04967e-006,2.09961e-002,-1.58691e-001,8.62793e-001,-7.50000e+000,-1.35976e+001,-1.82927e-001
1.25887e-005,-1.77920e-005,1.01074e-001,-1.65527e-001,8.88184e-001,-8.78049e+000,-1.45732e+001,1.70732e+000
2.19883e-005,-2.83665e-005,1.42578e-001,-1.69922e-001,8.88184e-001,-9.75610e+000,-1.62195e+001,3.29268e+000
2.51774e-005,-2.50095e-005,1.96777e-001,-1.69434e-001,8.50586e-001,-9.57317e+000,-1.67073e+001,3.41463e+000
3.10521e-005,-2.50095e-005,2.10938e-001,-1.73828e-001,8.28613e-001,-8.29268e+000,-1.65244e+001,2.31707e+000
3.15557e-005,-2.53452e-005,2.11914e-001,-1.67969e-001,8.03223e-001,-7.37805e+000,-1.40244e+001,2.01220e+000
2.01419e-005,-2.16526e-005,1.93359e-001,-1.68457e-001,8.02246e-001,-5.85366e+000,-5.79268e+000,9.75610e-001
1.67849e-006,-2.18204e-005,1.45508e-001,-1.76270e-001,8.10059e-001,-4.87805e+000,-1.95122e+000,1.46341e+000
-1.02388e-005,-1.42672e-005,1.25488e-001,-1.77734e-001,8.11035e-001,-2.92683e+000,3.96341e+000,2.07317e+000
-1.19173e-005,-1.49386e-005,1.01563e-001,-1.74316e-001,8.07129e-001,-2.25610e+000,6.03659e+000,1.70732e+000
-1.37636e-005,-2.09812e-005,1.04492e-001,-1.69434e-001,8.24219e-001,-2.37805e+000,8.90244e+000,1.09756e+000
-1.84634e-005,-1.76242e-005,9.08203e-002,-1.53809e-001,8.51563e-001,-2.80488e+000,9.75610e+000,5.48781e-001
-2.43381e-005,-4.19623e-006,9.22852e-002,-1.46973e-001,8.46680e-001,-3.65854e+000,9.87805e+000,-8.53659e-001
-2.76951e-005,7.88891e-006,1.08887e-001,-1.36719e-001,8.12988e-001,-3.35366e+000,9.63415e+000,-1.34146e+000
-3.30663e-005,1.72885e-005,1.25488e-001,-1.37695e-001,7.96875e-001,-2.43902e+000,1.01829e+001,-1.34146e+000
-3.87732e-005,2.51774e-005,1.50879e-001,-1.49414e-001,7.90039e-001,-1.89024e+000,9.75610e+000,-1.46341e+000
-3.64233e-005,2.16526e-005,1.63574e-001,-1.54297e-001,8.04199e-001,-1.46341e+000,8.84146e+000,-1.58537e+000
-2.83665e-005,-7.21752e-006,1.56250e-001,-1.67480e-001,8.28125e-001,6.09756e-002,6.09756e+000,-2.68293e+000
-2.09812e-005,-3.70947e-005,1.44043e-001,-1.66016e-001,8.39355e-001,9.14634e-001,4.20732e+000,-3.53659e+000
-1.62814e-005,-2.66880e-005,1.01563e-001,-1.68457e-001,8.53516e-001,3.10976e+000,-1.82927e-001,-5.42683e+000
-1.15816e-005,-1.76242e-005,8.30078e-002,-1.67969e-001,8.55957e-001,4.14634e+000,-2.31707e+000,-6.34146e+000
-1.04067e-005,-3.05486e-005,5.27344e-002,-1.63086e-001,8.73047e-001,5.00000e+000,-5.79268e+000,-6.46341e+000
-1.40993e-005,-2.70237e-005,5.32227e-002,-1.66016e-001,9.04297e-001,5.67073e+000,-7.50000e+000,-6.52439e+000
-1.57778e-005,-1.98062e-005,6.00586e-002,-1.66992e-001,9.15039e-001,7.43902e+000,-1.11585e+001,-5.18293e+000
-1.19173e-005,-1.71206e-005,6.88477e-002,-1.53809e-001,9.54102e-001,7.86585e+000,-1.28049e+001,-5.06098e+000
-9.23171e-006,-3.02129e-006,6.59180e-002,-1.45996e-001,9.73633e-001,9.26829e+000,-1.43902e+001,-4.39024e+000
-9.56741e-006,6.21042e-006,7.95898e-002,-1.22070e-001,1.00488e+000,9.63415e+000,-1.48171e+001,-4.02439e+000
-1.89670e-005,1.00710e-006,9.17969e-002,-1.10352e-001,1.00146e+000,1.01220e+001,-1.64024e+001,-4.08537e+000
-2.18204e-005,5.53903e-006,1.25977e-001,-8.98438e-002,9.79004e-001,1.05488e+001,-1.72561e+001,-4.14634e+000
-2.56809e-005,-4.19623e-006,1.45996e-001,-7.91016e-002,9.66309e-001,1.12195e+001,-1.73171e+001,-4.87805e+000
-2.73594e-005,-2.03098e-005,1.59180e-001,-6.68945e-002,9.57520e-001,1.16463e+001,-1.69512e+001,-5.00000e+000
-2.46738e-005,-1.42672e-005,1.59668e-001,-6.20117e-002,9.59961e-001,1.30488e+001,-1.51829e+001,-4.93902e+000
-2.13169e-005,-9.73526e-006,1.61133e-001,-5.07813e-002,9.57031e-001,1.34756e+001,-1.50610e+001,-4.63415e+000
-2.43381e-005,-1.66171e-005,1.60156e-001,-4.98047e-002,9.49707e-001,1.43293e+001,-1.50610e+001,-3.47561e+000
-2.66880e-005,-2.83665e-005,1.62109e-001,-4.34570e-002,9.19434e-001,1.39024e+001,-1.52439e+001,-1.03659e+000
-2.95415e-005,-1.32601e-005,1.67969e-001,-3.75977e-002,9.00879e-001,1.31707e+001,-1.50610e+001,3.65854e-001
-3.07164e-005,1.00710e-006,1.86035e-001,-4.34570e-002,8.75488e-001,1.10976e+001,-1.41463e+001,3.71951e+000
-2.43381e-005,-2.43381e-005,2.00195e-001,-4.63867e-002,8.68164e-001,9.75610e+000,-1.24390e+001,5.48780e+000
-2.29953e-005,-3.05486e-005,2.26563e-001,-5.46875e-002,8.61816e-001,6.95122e+000,-7.01220e+000,7.92683e+000
-1.93027e-005,-1.02388e-005,2.50000e-001,-4.88281e-002,8.98926e-001,4.45122e+000,-1.89024e+000,9.02439e+000
-1.42672e-005,1.66171e-005,2.50488e-001,-5.81055e-002,1.01953e+000,-4.87805e-001,7.74390e+000,9.32927e+000
-1.89670e-005,3.59197e-005,2.53906e-001,-7.03125e-002,1.01514e+000,-1.03659e+000,8.23171e+000,9.51220e+000
-3.07164e-005,6.07614e-005,3.37402e-001,-8.34961e-002,8.89648e-001,-3.65854e-001,1.00000e+001,9.69512e+000
-2.16526e-005,4.76692e-005,4.25781e-001,-9.66797e-002,8.29590e-001,-8.53659e-001,1.49390e+001,9.69512e+000
-8.89601e-006,-2.51774e-005,4.61426e-001,-1.05957e-001,8.43750e-001,-2.19512e+000,2.48171e+001,9.51220e+000
-1.39315e-005,-3.30663e-005,4.92676e-001,-1.19629e-001,8.95508e-001,-1.70732e+000,2.60976e+001,8.41463e+000
-1.82956e-005,-5.03548e-006,4.76563e-001,-1.21582e-001,9.13086e-001,2.56098e+000,2.54878e+001,3.78049e+000
-8.56031e-006,-2.85344e-006,3.57422e-001,-1.16699e-001,9.29688e-001,5.36585e+000,2.45732e+001,-2.43902e-001
-1.56100e-005,6.88182e-006,2.73926e-001,-1.10840e-001,9.31152e-001,1.00610e+001,2.18902e+001,-8.47561e+000
-3.37377e-005,3.07164e-005,1.23535e-001,-9.91211e-002,9.42383e-001,1.10976e+001,2.01220e+001,-1.27439e+001
-4.39765e-005,4.14588e-005,6.15234e-002,-9.86328e-002,9.58496e-001,9.75610e+000,1.57317e+001,-1.97561e+001
-3.79339e-005,3.47448e-005,-3.32031e-002,-9.61914e-002,9.80957e-001,8.90244e+000,1.30488e+001,-2.22561e+001
-2.78630e-005,2.55131e-005,-6.10352e-002,-9.22852e-002,9.79004e-001,7.19512e+000,6.21951e+000,-2.43902e+001
-8.22461e-006,1.93027e-005,-8.00781e-002,-8.74023e-002,9.61426e-001,5.73171e+000,2.86585e+000,-2.38415e+001
2.04776e-005,1.66171e-005,-8.05664e-002,-7.81250e-002,9.48730e-001,2.80488e+000,-4.14634e+000,-2.01829e+001
1.66171e-005,1.17494e-006,-5.12695e-002,-7.27539e-002,9.18457e-001,-6.09756e-002,-1.13415e+001,-1.48780e+001
-8.22461e-006,-1.42672e-005,-3.41797e-002,-7.47070e-002,9.02344e-001,-6.70732e-001,-1.46951e+001,-1.19512e+001
-2.85344e-006,-8.39246e-007,2.92969e-003,-9.13086e-002,8.56445e-001,-1.09756e+000,-2.07927e+001,-7.01220e+000
1.52743e-005,9.90310e-006,1.61133e-002,-1.02051e-001,8.38379e-001,-7.31707e-001,-2.30488e+001,-5.00000e+000
2.90379e-005,1.17494e-006,2.58789e-002,-1.30859e-001,7.98340e-001,1.21951e-001,-2.53659e+001,-1.40244e+000
2.56809e-005,1.05745e-005,1.80664e-002,-1.47949e-001,7.79297e-001,8.53659e-001,-2.48780e+001,-1.82927e-001
8.22461e-006,1.51064e-006,7.81250e-003,-1.78711e-001,7.59766e-001,2.62195e+000,-2.32927e+001,4.26829e+000
5.03548e-007,-5.00191e-005,6.83594e-003,-1.99219e-001,7.61719e-001,3.59756e+000,-2.26829e+001,6.03659e+000
1.19173e-005,-8.19104e-005,2.53906e-002,-2.26074e-001,7.75391e-001,6.40244e+000,-2.33537e+001,9.08537e+000
1.15816e-005,-9.70169e-005,3.32031e-002,-2.32422e-001,7.81738e-001,7.92683e+000,-2.53049e+001,9.75610e+000
5.53903e-006,-1.25048e-004,3.46680e-002,-2.22656e-001,7.69531e-001,1.08537e+001,-3.22561e+001,7.98780e+000
3.18914e-006,-1.09102e-004,8.30078e-003,-1.99219e-001,7.62207e-001,1.18293e+001,-3.49390e+001,5.73171e+000
-8.39246e-007,-4.81727e-005,-1.90430e-002,-1.87012e-001,7.62207e-001,1.29268e+001,-3.72561e+001,2.19512e+000
-1.32601e-005,2.40024e-005,-5.56641e-002,-1.59180e-001,7.79297e-001,1.28659e+001,-3.68293e+001,1.28049e+000
-2.43381e-005,6.64683e-005,-6.29883e-002,-1.50391e-001,7.92969e-001,1.23171e+001,-3.48171e+001,-4.26829e-001
-2.21561e-005,5.55581e-005,-3.56445e-002,-1.49902e-001,8.27637e-001,1.22561e+001,-3.32927e+001,-7.31707e-001
-1.72885e-005,3.39055e-005,2.44141e-003,-1.34277e-001,8.58887e-001,1.05488e+001,-2.90854e+001,-1.58537e+000
-2.60166e-005,2.87022e-005,6.54297e-002,-8.20313e-002,1.07568e+000,6.70732e+000,-2.37805e+001,-1.70732e+000
-3.39055e-005,2.60166e-005,5.76172e-002,-8.44727e-002,1.15039e+000,-7.92683e-001,-1.95122e+001,1.82927e-001
-3.64233e-005,3.27306e-005,1.90918e-001,-8.05664e-002,9.97070e-001,1.21951e+000,-2.69512e+001,2.92683e+000
-3.20592e-005,5.15297e-005,3.15918e-001,-6.39648e-002,8.95996e-001,4.81707e+000,-3.47561e+001,7.13415e+000
-2.50095e-005,4.07874e-005,4.71680e-001,-3.27148e-002,8.53027e-001,-6.09756e-002,-2.57927e+001,1.14024e+001
-1.79599e-005,1.79599e-005,5.20020e-001,-2.83203e-002,8.74512e-001,-2.07317e+000,-2.45732e+001,1.39024e+001
-1.20851e-005,6.54612e-006,6.12305e-001,-2.44141e-002,9.12109e-001,-1.34146e+000,-2.67073e+001,1.75610e+001
-8.22461e-006,8.39246e-007,6.20605e-001,-2.83203e-002,9.18457e-001,1.21951e+000,-2.57317e+001,1.76220e+001
-1.72885e-005,-1.51064e-006,5.43945e-001,-2.63672e-002,9.11621e-001,6.21951e+000,-2.07927e+001,1.56707e+001
-1.93027e-005,-6.21042e-006,4.75098e-001,-1.66016e-002,9.21875e-001,7.31707e+000,-1.82927e+001,1.40854e+001
-1.96384e-005,-1.37636e-005,3.27148e-001,-9.76563e-003,9.62402e-001,7.01220e+000,-1.37805e+001,9.81707e+000
-1.81277e-005,-1.79599e-005,2.63672e-001,-1.26953e-002,9.84375e-001,6.40244e+000,-1.06707e+001,8.35366e+000
-1.69528e-005,-2.40024e-005,1.83105e-001,-2.68555e-002,1.02197e+000,4.93902e+000,-2.25610e+000,7.25610e+000
-1.69528e-005,-2.58488e-005,1.72363e-001,-2.97852e-002,1.02637e+000,4.51220e+000,1.76829e+000,7.86585e+000
-1.66171e-005,-2.48417e-005,1.95313e-001,-3.75977e-002,1.02588e+000,3.29268e+000,7.68293e+000,9.81707e+000
-1.72885e-005,-2.53452e-005,2.69531e-001,-4.54102e-002,1.01855e+000,2.43902e+000,9.81707e+000,1.11585e+001
-1.59457e-005,-2.06455e-005,3.14453e-001,-4.34570e-002,1.01758e+000,7.31707e-001,1.22561e+001,1.20122e+001
-1.72885e-005,-1.46029e-005,4.07227e-001,-5.02930e-002,1.02490e+000,-2.43902e-001,1.24390e+001,1.15854e+001
-2.09812e-005,-1.04067e-005,4.52637e-001,-4.73633e-002,1.02637e+000,-2.01220e+000,1.20122e+001,8.41463e+000
-1.89670e-005,-1.25887e-005,5.04395e-001,-4.93164e-002,1.01855e+000,-2.31707e+000,1.15244e+001,5.54878e+000
-1.96384e-005,-8.89601e-006,5.02930e-001,-5.22461e-002,1.01416e+000,-2.98780e+000,1.16463e+001,-1.09756e+000
-1.81277e-005,-1.02388e-005,4.69727e-001,-6.64063e-002,1.03076e+000,-3.04878e+000,1.26220e+001,-4.08537e+000
-1.35958e-005,-1.15816e-005,4.39941e-001,-7.12891e-002,1.04346e+000,-1.64634e+000,1.59756e+001,-8.71951e+000
-1.22530e-005,-1.39315e-005,3.67188e-001,-9.27734e-002,1.02051e+000,-1.15854e+000,1.64024e+001,-1.00000e+001
-1.62814e-005,-1.54421e-005,3.34473e-001,-9.32617e-002,9.89258e-001,6.70732e-001,1.34756e+001,-1.32927e+001
-2.26596e-005,-1.15816e-005,2.57324e-001,-9.57031e-002,9.25293e-001,9.75610e-001,1.12805e+001,-1.57927e+001
-2.63523e-005,-1.67849e-005,2.09961e-001,-9.66797e-002,8.95996e-001,7.31707e-001,1.08537e+001,-1.64634e+001
-2.80308e-005,-2.46738e-005,1.05469e-001,-9.32617e-002,8.68652e-001,-1.21951e+000,1.10976e+001,-1.54878e+001
-2.65202e-005,-1.02388e-005,6.29883e-002,-1.02539e-001,8.71582e-001,-2.07317e+000,1.20122e+001,-1.42683e+001
-2.58488e-005,1.17494e-005,-1.95313e-003,-1.19629e-001,8.95020e-001,-3.35366e+000,1.32317e+001,-1.09756e+001
-2.65202e-005,1.39315e-005,-2.34375e-002,-1.33789e-001,9.07715e-001,-3.90244e+000,1.33537e+001,-9.08537e+000
-3.03807e-005,1.67849e-007,-3.02734e-002,-1.59180e-001,9.37500e-001,-4.26829e+000,1.29268e+001,-5.60976e+000
-3.02129e-005,-1.22530e-005,-3.90625e-003,-1.81641e-001,9.57520e-001,-5.24390e+000,1.21951e+001,-4.32927e+000
-2.50095e-005,-2.83665e-005,1.46484e-002,-1.95313e-001,9.65332e-001,-6.21951e+000,1.12195e+001,-2.80488e+000
-2.33310e-005,-2.70237e-005,6.64063e-002,-2.11426e-001,9.76563e-001,-6.70732e+000,1.10976e+001,-2.13415e+000
-1.71206e-005,-4.86763e-006,9.47266e-002,-2.10938e-001,9.80469e-001,-8.10976e+000,1.13415e+001,-1.15854e+000
-1.22530e-005,1.24208e-005,1.41602e-001,-2.12891e-001,9.79492e-001,-8.65854e+000,1.15244e+001,-7.31707e-001
-1.20851e-005,5.20333e-006,1.66504e-001,-2.10449e-001,9.74121e-001,-9.39024e+000,1.25610e+001,-9.75610e-001
-6.88182e-006,-4.19623e-006,2.11914e-001,-1.99219e-001,9.70215e-001,-9.81707e+000,1.34146e+001,-1.03659e+000
-9.56741e-006,-1.17494e-006,2.21191e-001,-1.98730e-001,9.57031e-001,-9.93902e+000,1.65244e+001,-2.07317e+000
-1.09102e-005,5.20333e-006,2.27051e-001,-1.83594e-001,8.98926e-001,-9.14634e+000,1.73171e+001,-2.31707e+000
-1.46029e-005,1.20851e-005,2.24121e-001,-1.80176e-001,8.64746e-001,-6.82927e+000,1.70122e+001,-3.65854e+000
-1.66171e-005,1.57778e-005,1.75293e-001,-1.77734e-001,7.32422e-001,-4.81707e+000,1.60976e+001,-4.87805e+000
-1.62814e-005,1.37636e-005,1.34277e-001,-1.75781e-001,6.48438e-001,-6.70732e-001,1.37805e+001,-7.31707e+000
-1.94705e-005,2.13169e-005,1.41602e-002,-1.96289e-001,5.29297e-001,1.58537e+000,1.53659e+001,-7.62195e+000
-2.03098e-005,2.97093e-005,-3.85742e-002,-2.22168e-001,4.99023e-001,7.31707e+000,2.10366e+001,-6.76829e+000
-1.79599e-005,2.98772e-005,-1.24023e-001,-2.78809e-001,4.83887e-001,1.21951e+001,2.31707e+001,-4.39024e+000
-2.06455e-005,1.99741e-005,-1.60645e-001,-3.11523e-001,4.92188e-001,1.40244e+001,2.25000e+001,-4.08537e+000
-2.18204e-005,2.85344e-006,-2.12891e-001,-3.57422e-001,5.24414e-001,1.65854e+001,1.71951e+001,-4.02439e+000
-1.91348e-005,-7.55322e-006,-2.33398e-001,-3.66699e-001,5.51270e-001,1.63415e+001,1.25610e+001,-5.24390e+000
-1.12459e-005,-8.22461e-006,-2.68066e-001,-3.52539e-001,6.02539e-001,1.60366e+001,1.03659e+000,-8.53659e+000
-1.64492e-005,-2.85344e-006,-2.77344e-001,-3.31055e-001,6.32324e-001,1.53659e+001,-4.02439e+000,-1.04878e+001
-2.98772e-005,-2.85344e-005,-2.88086e-001,-2.92969e-001,7.11426e-001,1.32317e+001,-1.23780e+001,-1.29878e+001
-3.55840e-005,-6.16007e-005,-2.47559e-001,-2.52441e-001,8.17383e-001,1.24390e+001,-1.53659e+001,-1.32927e+001
-3.81018e-005,-6.79789e-005,-1.95801e-001,-2.32422e-001,8.78906e-001,1.08537e+001,-2.05488e+001,-1.20122e+001
-2.83665e-005,-5.95865e-005,-5.41992e-002,-2.01660e-001,9.84863e-001,1.04268e+001,-2.31098e+001,-1.06707e+001
4.86763e-006,-3.57519e-005,2.24609e-002,-1.87500e-001,1.00977e+000,1.09756e+001,-2.79878e+001,-7.80488e+000
2.36667e-005,-1.12459e-005,1.88477e-001,-1.41602e-001,1.01953e+000,1.14634e+001,-3.03049e+001,-6.52439e+000
1.99741e-005,7.88891e-006,2.65137e-001,-1.13281e-001,1.01514e+000,1.14634e+001,-3.32927e+001,-4.26829e+000
1.24208e-005,3.99481e-005,3.78418e-001,-4.98047e-002,1.01514e+000,1.17683e+001,-3.34756e+001,-3.59756e+000
1.29244e-005,7.15038e-005,4.13574e-001,-2.05078e-002,1.01367e+000,1.26220e+001,-3.31098e+001,-2.62195e+000
4.53193e-006,8.76173e-005,4.38965e-001,3.27148e-002,1.01660e+000,1.37805e+001,-3.24390e+001,-2.92683e+000
-4.86763e-006,6.14328e-005,4.39941e-001,4.68750e-002,1.01855e+000,1.75000e+001,-2.85366e+001,-3.96341e+000
-1.69528e-005,3.34020e-005,3.98926e-001,6.44531e-002,1.03711e+000,1.87805e+001,-2.65244e+001,-4.93902e+000
-2.08133e-005,3.10521e-005,3.75000e-001,7.27539e-002,1.05859e+000,1.96951e+001,-2.30488e+001,-5.42683e+000
-1.19173e-005,3.97803e-005,3.48633e-001,7.61719e-002,1.13281e+000,1.93902e+001,-2.04268e+001,-4.57317e+000
-5.03548e-006,4.38087e-005,3.61816e-001,9.66797e-002,1.18018e+000,1.42683e+001,-1.22561e+001,-2.31707e+000
-6.04257e-006,5.84115e-005,3.36914e-001,1.38184e-001,1.43555e+000,-1.28049e+000,2.74390e+000,5.48781e-001
1.17494e-006,5.25368e-005,3.00293e-001,1.05957e-001,1.48096e+000,-2.74390e+000,-2.86585e+000,3.65854e+000
8.39246e-006,1.56100e-005,4.68750e-001,8.00781e-002,1.16748e+000,5.97561e+000,-1.78659e+001,7.68293e+000
9.56741e-006,-5.25368e-005,5.65918e-001,9.42383e-002,1.00732e+000,6.15854e+000,-1.27439e+001,6.52439e+000
9.23171e-006,-7.83856e-005,6.14258e-001,1.03027e-001,9.53613e-001,-8.53659e-001,6.82927e+000,4.63415e+000
2.51774e-006,-7.80499e-005,6.16211e-001,8.88672e-002,9.84375e-001,-3.84146e+000,1.03659e+001,4.57317e+000
-1.52743e-005,-6.46220e-005,6.24512e-001,4.24805e-002,1.02002e+000,-1.82927e+000,1.09756e+001,4.32927e+000
-2.23239e-005,-4.04517e-005,5.33203e-001,-2.19727e-002,1.00146e+000,1.40244e+000,1.29268e+001,2.74390e+000
-2.06455e-005,-2.85344e-006,4.37988e-001,-4.68750e-002,9.73633e-001,8.41463e+000,1.68293e+001,-2.56098e+000
-1.25887e-005,2.97093e-005,2.53906e-001,-6.39648e-002,9.43848e-001,9.93902e+000,1.56707e+001,-6.15854e+000
-2.18204e-005,5.28725e-005,1.66992e-001,-7.03125e-002,9.32129e-001,8.71951e+000,1.00000e+001,-1.33537e+001
-3.50805e-005,5.20333e-005,2.29492e-002,-9.47266e-002,9.01855e-001,7.80488e+000,6.95122e+000,-1.60366e+001
-3.44091e-005,-4.14588e-005,-3.36914e-002,-1.06445e-001,8.74512e-001,5.00000e+000,3.35366e+000,-1.82317e+001
-2.87022e-005,-9.76883e-005,-8.15430e-002,-1.17676e-001,8.24707e-001,3.78049e+000,2.01220e+000,-1.78659e+001
-1.79599e-005,-8.96315e-005,-8.20313e-002,-1.27441e-001,8.12012e-001,3.65854e-001,-2.43902e-001,-1.44512e+001
-1.99741e-005,-7.77142e-005,-5.61523e-002,-1.44043e-001,8.06152e-001,-6.09756e-001,-1.03659e+000,-1.17073e+001
-2.63523e-005,-1.37636e-005,-3.32031e-002,-1.50391e-001,8.15918e-001,-2.86585e+000,-4.14634e+000,-5.24390e+000
-1.56100e-005,4.01160e-005,3.71094e-002,-1.65527e-001,8.52539e-001,-3.53659e+000,-5.67073e+000,-1.76829e+000
-4.19623e-006,6.19364e-005,8.34961e-002,-1.70898e-001,8.73535e-001,-5.36585e+000,-8.90244e+000,3.59756e+000
-6.54612e-006,8.03998e-005,1.70898e-001,-1.83105e-001,9.17480e-001,-7.37805e+000,-1.07927e+001,5.67073e+000
-2.01419e-006,6.69719e-005,2.10449e-001,-1.87500e-001,9.36523e-001,-7.98780e+000,-1.06707e+001,5.97561e+000
-7.21752e-006,5.90829e-005,2.70020e-001,-1.87500e-001,9.60938e-001,-8.78049e+000,-9.45122e+000,5.30488e+000
-1.19173e-005,1.77920e-005,2.88574e-001,-1.88965e-001,9.52637e-001,-8.96342e+000,-9.81707e+000,4.75610e+000
-9.23171e-006,1.25887e-005,3.07129e-001,-1.90430e-001,8.69141e-001,-6.52439e+000,-1.19512e+001,2.19512e+000
-1.27565e-005,1.49386e-005,3.06641e-001,-1.86523e-001,8.02246e-001,-4.45122e+000,-1.25610e+001,1.82927e-001
-1.82956e-005,-3.34020e-005,2.36328e-001,-1.77246e-001,7.02637e-001,-1.76829e+000,-7.92683e+000,-2.62195e+000
-1.69528e-005,-5.92508e-005,1.70410e-001,-1.76758e-001,6.92871e-001,-3.65854e-001,-3.29268e+000,-2.74390e+000
-1.96384e-005,-2.92058e-005,4.63867e-002,-1.81152e-001,7.02637e-001,2.74390e+000,5.48780e+000,-4.87805e-001
-1.96384e-005,-7.88891e-006,-3.85742e-002,-1.93848e-001,7.20215e-001,3.71951e+000,8.53659e+000,9.75610e-001
-1.59457e-005,-1.09102e-005,-6.05469e-002,-2.03125e-001,7.26074e-001,5.54878e+000,1.15854e+001,4.08537e+000
-1.19173e-005,-1.42672e-005,-5.41992e-002,-2.15332e-001,7.26074e-001,5.85366e+000,1.08537e+001,4.93902e+000
-1.22530e-005,-2.18204e-006,-3.95508e-002,-2.17773e-001,7.29492e-001,5.00000e+000,7.68293e+000,4.45122e+000
-1.22530e-005,-3.52483e-006,-1.41602e-002,-2.15820e-001,7.56348e-001,4.63415e+000,5.60976e+000,3.41463e+000
-1.66171e-005,-1.04067e-005,-9.76563e-003,-2.07031e-001,7.70996e-001,3.23171e+000,1.15854e+000,1.28049e+000
-1.71206e-005,-2.43381e-005,0.00000e+000,-1.97266e-001,8.03223e-001,2.37805e+000,-1.70732e+000,0.00000e+000
-1.82956e-005,-3.25628e-005,1.02539e-002,-1.87500e-001,8.16895e-001,2.31707e+000,-5.91463e+000,-1.40244e+000
-1.66171e-005,-2.58488e-005,3.12500e-002,-1.83105e-001,8.49609e-001,2.31707e+000,-7.98780e+000,-1.89024e+000
-1.72885e-005,-1.96384e-005,4.29688e-002,-1.83594e-001,8.62793e-001,3.04878e+000,-1.19512e+001,-1.76829e+000
-2.03098e-005,-2.24918e-005,8.54492e-002,-1.72852e-001,8.78906e-001,4.45122e+000,-1.39634e+001,-1.09756e+000
-2.09812e-005,-2.23239e-005,9.86328e-002,-1.64551e-001,8.82813e-001,5.97561e+000,-1.91463e+001,-4.87805e-001
-1.62814e-005,-2.26596e-005,1.41602e-001,-1.45020e-001,8.81836e-001,7.31707e+000,-2.31098e+001,7.31707e-001
-1.54421e-005,-3.35698e-005,1.59668e-001,-1.35742e-001,8.90137e-001,8.10976e+000,-2.36585e+001,1.15854e+000
-2.16526e-005,-5.65652e-005,1.85059e-001,-1.14258e-001,9.37012e-001,9.45122e+000,-2.36585e+001,1.03659e+000
-2.13169e-005,-3.94446e-005,1.91406e-001,-1.08398e-001,9.54102e-001,9.63415e+000,-2.38415e+001,1.03659e+000
-2.81987e-005,3.18914e-006,2.16797e-001,-9.52148e-002,9.69238e-001,1.12195e+001,-2.46341e+001,5.48781e-001
-4.95155e-005,-2.85344e-006,2.26074e-001,-8.44727e-002,9.71191e-001,1.12805e+001,-2.47561e+001,2.43902e-001
-4.24659e-005,-1.59457e-005,2.40234e-001,-6.15234e-002,9.73633e-001,1.15244e+001,-2.28049e+001,-6.70732e-001
-2.29953e-005,-8.22461e-006,2.43164e-001,-5.41992e-002,9.79492e-001,1.10976e+001,-2.17073e+001,-1.28049e+000
-1.89670e-005,-4.36408e-006,2.39258e-001,-3.36914e-002,9.97559e-001,1.09756e+001,-1.81098e+001,-2.62195e+000
-5.25368e-005,-9.23171e-006,2.36816e-001,-1.56250e-002,1.00879e+000,1.10366e+001,-1.61585e+001,-2.68293e+000
-8.24140e-005,-7.55322e-006,2.43164e-001,-1.26953e-002,1.00977e+000,9.14634e+000,-1.25610e+001,-2.13415e+000
-5.90829e-005,-8.39246e-007,2.65625e-001,-1.61133e-002,1.01514e+000,8.59756e+000,-1.04878e+001,-7.92683e-001
-8.39246e-007,1.00710e-005,2.81738e-001,-1.75781e-002,1.01270e+000,7.07317e+000,-8.29268e+000,2.50000e+000
5.06905e-005,2.83665e-005,3.28613e-001,-8.78906e-003,1.03076e+000,5.85366e+000,-7.01220e+000,4.02439e+000
9.44991e-005,3.65911e-005,3.38379e-001,7.32422e-003,1.07959e+000,-3.65854e-001,1.21951e-001,6.70732e+000
9.56741e-005,3.97803e-005,3.02734e-001,-9.76563e-004,1.17236e+000,-3.59756e+000,4.39024e+000,8.59756e+000
3.45769e-005,3.81018e-005,3.11035e-001,-1.70898e-002,1.13086e+000,-2.13415e+000,6.09756e-001,1.22561e+001
-4.19623e-006,4.14588e-005,4.11621e-001,-2.97852e-002,9.71680e-001,1.09756e+000,-6.70732e-001,1.31707e+001
1.12459e-005,2.85344e-005,4.55566e-001,-3.95508e-002,9.41406e-001,-1.82927e-001,5.73171e+000,1.26829e+001
2.26596e-005,3.86053e-006,5.00000e-001,-6.34766e-002,9.77051e-001,-2.19512e+000,9.81707e+000,1.29878e+001
9.23171e-006,-2.65202e-005,5.09277e-001,-7.08008e-002,1.00000e+000,-2.74390e+000,1.15854e+001,1.26829e+001
-4.04517e-005,-3.23949e-005,4.76563e-001,-8.88672e-002,1.00049e+000,1.21951e+000,8.84146e+000,8.71951e+000
-9.18135e-005,-2.29953e-005,4.29199e-001,-9.22852e-002,9.82910e-001,3.04878e+000,7.56098e+000,5.67073e+000
-1.08934e-004,-4.86763e-006,2.78809e-001,-8.78906e-002,9.69238e-001,5.06098e+000,6.70732e+000,-6.09756e-001
-9.21492e-005,-2.01419e-006,2.10938e-001,-8.25195e-002,9.73633e-001,4.75610e+000,6.21951e+000,-3.47561e+000
-5.30404e-005,-4.58228e-005,1.00098e-001,-9.86328e-002,9.80957e-001,2.01220e+000,2.43902e+000,-8.17073e+000
-1.40993e-005,-8.35889e-005,6.78711e-002,-1.10352e-001,9.76074e-001,1.28049e+000,1.21951e-001,-9.81707e+000
2.53452e-005,-1.03899e-004,3.27148e-002,-1.31348e-001,9.39453e-001,-6.09756e-001,-4.93902e+000,-1.09146e+001
9.08064e-005,-9.36599e-005,2.58789e-002,-1.36719e-001,9.12598e-001,-1.40244e+000,-6.95122e+000,-1.04268e+001
1.39147e-004,-1.32601e-005,3.17383e-002,-1.39648e-001,8.79883e-001,-3.53659e+000,-9.69512e+000,-7.56098e+000
8.67781e-005,7.98962e-005,4.49219e-002,-1.43555e-001,8.85254e-001,-5.12195e+000,-9.63415e+000,-5.18293e+000
2.21561e-005,1.31426e-004,6.34766e-002,-1.41113e-001,9.01367e-001,-7.74390e+000,-8.04878e+000,-6.70732e-001
-3.52483e-006,1.05913e-004,1.14258e-001,-1.48926e-001,9.35059e-001,-8.96342e+000,-7.19512e+000,1.76829e+000
-3.37377e-005,7.73785e-005,1.49902e-001,-1.52344e-001,9.39941e-001,-1.00000e+001,-5.18293e+000,4.93902e+000
-1.64492e-005,3.96124e-005,2.09473e-001,-1.63574e-001,9.07227e-001,-9.93902e+000,-5.42683e+000,6.03659e+000
1.05745e-005,-1.17494e-006,2.34863e-001,-1.65527e-001,8.78906e-001,-8.35366e+000,-7.13415e+000,6.40244e+000
2.58488e-005,-1.22530e-005,2.34375e-001,-1.56738e-001,8.38867e-001,-8.47561e+000,-6.70732e+000,6.46341e+000
-6.88182e-006,-1.89670e-005,2.15332e-001,-1.54785e-001,8.18848e-001,-7.86585e+000,-2.43902e+000,7.07317e+000
-2.61845e-005,-2.60166e-005,1.68945e-001,-1.63086e-001,7.65137e-001,-6.15854e+000,6.70732e-001,7.98780e+000
-1.46029e-005,-2.92058e-005,1.55762e-001,-1.70898e-001,7.38770e-001,-4.02439e+000,5.73171e+000,9.57317e+000
-1.12459e-005,-2.90379e-005,1.43555e-001,-2.06543e-001,6.84570e-001,-1.89024e+000,7.62195e+000,1.02439e+001
-9.56741e-006,-2.19883e-005,1.37207e-001,-2.21680e-001,6.64551e-001,2.74390e+000,8.04878e+000,1.09146e+001
-6.21042e-006,-1.93027e-005,1.05957e-001,-2.48535e-001,6.36230e-001,6.70732e+000,7.68293e+000,8.90244e+000
-1.59457e-005,-1.98062e-005,7.22656e-002,-2.52441e-001,6.42090e-001,8.10976e+000,7.37805e+000,7.68293e+000
-2.06455e-005,-1.82956e-005,-7.32422e-003,-2.54883e-001,6.78223e-001,1.02439e+001,6.76829e+000,3.96341e+000
-1.19173e-005,-1.09102e-005,-4.63867e-002,-2.53906e-001,7.01172e-001,1.04268e+001,5.12195e+000,1.89024e+000
-2.45060e-005,-2.51774e-006,-1.21094e-001,-2.52441e-001,7.51465e-001,1.28659e+001,2.25610e+000,-1.46341e+000
-4.44800e-005,7.88891e-006,-1.43066e-001,-2.49023e-001,7.77344e-001,1.31098e+001,7.92683e-001,-2.56098e+000
-5.69009e-005,1.19173e-005,-1.48438e-001,-2.43652e-001,8.30078e-001,1.30488e+001,-1.34146e+000,-3.35366e+000
-5.62295e-005,6.54612e-006,-1.35742e-001,-2.35840e-001,8.65234e-001,1.25000e+001,-2.56098e+000,-3.71951e+000
-4.86763e-005,5.70687e-006,-5.85938e-002,-2.14355e-001,9.30176e-001,1.14634e+001,-5.36585e+000,-3.23171e+000
-3.92767e-005,5.70687e-006,4.68750e-002,-1.78711e-001,9.81445e-001,1.07317e+001,-7.01220e+000,-3.47561e+000
-3.28984e-005,3.18914e-006,1.00586e-001,-1.60156e-001,9.98535e-001,9.81707e+000,-1.03659e+001,-3.04878e+000
-3.45769e-005,-1.17494e-006,2.14355e-001,-1.27441e-001,1.00293e+000,1.02439e+001,-1.18293e+001,-2.92683e+000
-4.64942e-005,-8.39246e-006,2.59766e-001,-1.00098e-001,9.94629e-001,1.12805e+001,-1.30488e+001,-2.56098e+000
-4.85084e-005,-1.37636e-005,3.09082e-001,-6.29883e-002,9.88770e-001,1.20732e+001,-1.26220e+001,-2.86585e+000
-4.07874e-005,-3.10521e-005,3.13965e-001,-4.63867e-002,9.90234e-001,1.33537e+001,-1.14634e+001,-2.74390e+000
-3.67590e-005,-2.90379e-005,3.03223e-001,-2.00195e-002,9.91699e-001,1.48171e+001,-1.04268e+001,-2.68293e+000
-3.34020e-005,-7.55322e-006,2.89551e-001,-1.56250e-002,9.94141e-001,1.64634e+001,-9.20732e+000,-2.74390e+000
-3.40734e-005,-4.69978e-006,2.60254e-001,-1.36719e-002,9.96094e-001,1.69512e+001,-8.71951e+000,-2.86585e+000
-3.27306e-005,-9.56741e-006,2.49512e-001,-1.07422e-002,9.95117e-001,1.79878e+001,-6.15854e+000,-2.56098e+000
-3.74304e-005,-3.35698e-006,2.48047e-001,1.66016e-002,1.02881e+000,1.72561e+001,-5.06098e+000,-1.89024e+000
-4.41444e-005,5.03548e-007,2.47070e-001,3.95508e-002,1.11426e+000,9.39024e+000,4.08537e+000,0.00000e+000
-4.01160e-005,1.67849e-006,1.72363e-001,1.80664e-002,1.20752e+000,5.73171e+000,3.35366e+000,3.84146e+000
-3.40734e-005,3.18914e-006,1.98242e-001,5.37109e-003,1.11279e+000,9.26829e+000,-3.10976e+000,6.21951e+000
-3.30663e-005,1.67849e-006,3.19336e-001,1.07422e-002,9.12598e-001,1.15244e+001,1.82927e-001,7.98780e+000
-2.46738e-005,3.35698e-006,3.51074e-001,1.22070e-002,8.87207e-001,9.63415e+000,7.01220e+000,8.78049e+000
-1.69528e-005,8.39246e-006,3.79883e-001,7.32422e-003,9.59473e-001,5.79268e+000,1.00000e+001,1.18293e+001
-1.44350e-005,8.05676e-006,4.11621e-001,-4.88281e-004,9.92188e-001,5.54878e+000,7.37805e+000,1.28049e+001
-1.56100e-005,-5.20333e-006,4.23828e-001,-2.53906e-002,1.00049e+000,8.17073e+000,2.98780e+000,1.19512e+001
-1.72885e-005,-1.76242e-005,3.90625e-001,-4.34570e-002,9.94141e-001,9.75610e+000,2.31707e+000,1.00610e+001
-1.56100e-005,-3.44091e-005,2.78809e-001,-5.85938e-002,9.81934e-001,1.15244e+001,7.92683e-001,4.14634e+000
-1.42672e-005,-3.72625e-005,1.64063e-001,-7.08008e-002,9.79980e-001,1.08537e+001,-5.48781e-001,8.53659e-001
-1.29244e-005,-2.98772e-005,1.20117e-001,-7.27539e-002,9.77051e-001,8.10976e+000,-3.47561e+000,-5.06098e+000
-4.53193e-006,-1.09102e-005,7.56836e-002,-8.39844e-002,9.58008e-001,6.76829e+000,-4.63415e+000,-6.89024e+000
2.85344e-006,8.56031e-006,6.78711e-002,-8.83789e-002,9.37988e-001,5.73171e+000,-8.23171e+000,-7.74390e+000
-2.18204e-006,3.35698e-005,8.20313e-002,-9.27734e-002,8.81836e-001,4.75610e+000,-1.00000e+001,-7.50000e+000
-4.53193e-006,5.92508e-005,8.78906e-002,-9.66797e-002,8.50586e-001,3.71951e+000,-1.10366e+001,-4.26829e+000
-4.36408e-006,4.78370e-005,9.71680e-002,-1.09863e-001,8.11035e-001,3.78049e+000,-1.06707e+001,-2.37805e+000
-7.38537e-006,4.19623e-006,1.05469e-001,-1.21094e-001,7.92969e-001,2.37805e+000,-9.14634e+000,2.19512e+000
-8.89601e-006,-3.13878e-005,1.14258e-001,-1.36719e-001,7.76855e-001,2.37805e+000,-7.37805e+000,3.96341e+000
-8.39246e-006,-3.54162e-005,1.20605e-001,-1.48926e-001,7.76367e-001,7.92683e-001,-4.69512e+000,6.28049e+000
-1.42672e-005,-4.68299e-005,1.37207e-001,-1.65039e-001,7.86621e-001,4.87805e-001,-2.62195e+000,6.89024e+000
-1.62814e-005,-7.38537e-005,1.40137e-001,-1.66016e-001,8.01758e-001,-7.31707e-001,2.01220e+000,8.04878e+000
-1.32601e-005,-9.95346e-005,1.61133e-001,-1.68457e-001,8.31055e-001,-1.64634e+000,6.89024e+000,8.41463e+000
-1.19173e-005,-9.21492e-005,1.79199e-001,-1.70410e-001,8.37891e-001,-2.13415e+000,9.02439e+000,8.23171e+000
-1.17494e-005,-4.38087e-005,2.18262e-001,-1.61621e-001,8.63281e-001,-2.37805e+000,1.34146e+001,7.01220e+000
-1.09102e-005,5.70687e-006,2.32910e-001,-1.61133e-001,8.75488e-001,-2.43902e+000,1.59756e+001,6.21951e+000
-9.56741e-006,2.87022e-005,2.59766e-001,-1.46484e-001,8.96973e-001,-1.82927e+000,2.02439e+001,3.84146e+000
-9.73526e-006,6.04257e-006,2.65137e-001,-1.38672e-001,9.01367e-001,-1.40244e+000,2.21341e+001,2.50000e+000
-1.51064e-005,9.56741e-006,2.72461e-001,-1.25977e-001,9.15039e-001,-5.48781e-001,2.65244e+001,6.09756e-002
-1.05745e-005,3.69268e-005,2.66113e-001,-1.23047e-001,9.19922e-001,-6.09756e-002,2.90244e+001,-1.15854e+000
-5.20333e-006,4.28016e-005,2.50488e-001,-1.15723e-001,9.27246e-001,1.03659e+000,3.26829e+001,-3.10976e+000
-8.56031e-006,3.52483e-006,2.32422e-001,-1.15234e-001,9.37988e-001,1.52439e+000,3.45122e+001,-4.02439e+000
-1.17494e-005,-4.98512e-005,2.27051e-001,-1.17188e-001,9.34570e-001,2.92683e+000,3.60366e+001,-6.09756e+000
-1.04067e-005,-4.28016e-005,2.02637e-001,-1.15234e-001,9.04785e-001,3.90244e+000,3.57927e+001,-7.19512e+000
-6.21042e-006,-5.87472e-006,1.89453e-001,-1.14258e-001,8.84766e-001,5.12195e+000,3.43902e+001,-1.00000e+001
-3.52483e-006,1.86313e-005,1.43555e-001,-1.22070e-001,8.66699e-001,5.79268e+000,3.46951e+001,-1.07317e+001
-1.51064e-006,5.55581e-005,1.11328e-001,-1.29395e-001,8.66211e-001,6.58537e+000,3.53049e+001,-1.30488e+001
1.17494e-006,6.81468e-005,4.58984e-002,-1.43555e-001,8.68164e-001,6.82927e+000,3.47561e+001,-1.32317e+001
1.17494e-006,6.12650e-005,1.36719e-002,-1.50391e-001,8.68164e-001,7.98780e+000,3.40244e+001,-1.32927e+001
-1.84634e-006,6.56291e-005,-3.85742e-002,-1.66504e-001,8.67676e-001,8.10976e+000,3.30488e+001,-1.31098e+001
-4.53193e-006,4.14588e-005,-4.93164e-002,-1.68457e-001,8.71582e-001,8.71951e+000,3.02439e+001,-1.23780e+001
-5.70687e-006,3.57519e-005,-5.85938e-002,-1.64551e-001,9.06250e-001,8.59756e+000,2.91463e+001,-1.20732e+001
-9.73526e-006,3.42412e-005,-6.78711e-002,-1.61133e-001,9.08203e-001,7.62195e+000,2.46951e+001,-1.17073e+001
-1.22530e-005,8.56031e-006,-6.59180e-002,-1.46484e-001,8.60840e-001,7.19512e+000,1.95122e+001,-1.09146e+001
-1.17494e-005,-2.83665e-005,-5.81055e-002,-1.32324e-001,8.38867e-001,7.07317e+000,1.76220e+001,-1.12805e+001
-1.22530e-005,-2.73594e-005,-3.17383e-002,-1.25000e-001,8.18848e-001,6.09756e+000,1.41463e+001,-1.03049e+001
-1.19173e-005,-3.35698e-007,-1.66016e-002,-1.26953e-001,8.29102e-001,5.73171e+000,1.15854e+001,-9.87805e+000
-1.12459e-005,3.86053e-006,1.31836e-002,-1.24023e-001,8.65723e-001,5.67073e+000,6.64634e+000,-9.14634e+000
-1.07424e-005,-2.08133e-005,2.09961e-002,-1.21094e-001,8.80371e-001,5.42683e+000,2.98780e+000,-9.57317e+000
-1.09102e-005,-3.60876e-005,2.83203e-002,-1.07910e-001,9.02832e-001,5.36585e+000,-2.37805e+000,-9.51220e+000
-1.10781e-005,-6.54612e-005,2.68555e-002,-1.03516e-001,9.07715e-001,4.87805e+000,-4.69512e+000,-9.57317e+000
-8.22461e-006,-8.76173e-005,3.61328e-002,-8.83789e-002,9.18457e-001,3.84146e+000,-9.81707e+000,-1.02439e+001
-7.04967e-006,-4.21302e-005,5.07813e-002,-8.25195e-002,9.05762e-001,3.78049e+000,-1.17683e+001,-1.00610e+001
-8.39246e-006,3.52483e-006,5.51758e-002,-7.86133e-002,8.97461e-001,3.59756e+000,-1.37805e+001,-9.81707e+000
-1.12459e-005,2.13169e-005,7.56836e-002,-7.22656e-002,8.93555e-001,3.84146e+000,-1.42683e+001,-9.39024e+000
-1.09102e-005,1.69528e-005,8.74023e-002,-7.03125e-002,8.96973e-001,3.41463e+000,-1.39634e+001,-7.50000e+000
-1.57778e-005,-3.18914e-006,1.10840e-001,-7.86133e-002,9.08691e-001,3.17073e+000,-1.36585e+001,-6.64634e+000
-1.76242e-005,-4.41444e-005,1.26465e-001,-8.20313e-002,9.15039e-001,3.29268e+000,-1.39024e+001,-4.39024e+000
-2.19883e-005,-9.58419e-005,1.55273e-001,-7.95898e-002,9.31641e-001,3.53659e+000,-1.39634e+001,-2.98780e+000
-2.61845e-005,-8.50996e-005,1.70898e-001,-7.91016e-002,9.35547e-001,2.56098e+000,-1.53049e+001,-1.40244e+000
-2.85344e-005,-3.40734e-005,1.98730e-001,-7.42188e-002,9.35059e-001,2.31707e+000,-1.57317e+001,-6.70732e-001
-2.46738e-005,6.54612e-006,2.08496e-001,-7.12891e-002,9.29688e-001,2.07317e+000,-1.79268e+001,-3.04878e-001
-1.89670e-005,1.82956e-005,2.24609e-001,-6.44531e-002,9.26270e-001,2.31707e+000,-1.83537e+001,-2.43902e-001
-1.62814e-005,3.86053e-006,2.16797e-001,-6.25000e-002,9.28223e-001,3.65854e+000,-1.87195e+001,-8.53659e-001
-7.55322e-006,6.54612e-006,1.93359e-001,-6.20117e-002,9.38965e-001,4.81707e+000,-1.83537e+001,-1.03659e+000
5.53903e-006,2.56809e-005,1.80176e-001,-6.59180e-002,9.45313e-001,4.75610e+000,-1.84146e+001,-1.03659e+000
6.21042e-006,5.52224e-005,1.54785e-001,-7.22656e-002,9.56543e-001,5.60976e+000,-1.80488e+001,-9.75610e-001
-2.18204e-006,7.04967e-005,1.59180e-001,-7.51953e-002,9.58496e-001,5.85366e+000,-1.78659e+001,-1.34146e+000
-8.56031e-006,6.96574e-005,1.55273e-001,-7.56836e-002,9.70215e-001,5.73171e+000,-1.73780e+001,-9.75610e-001
-9.06386e-006,7.77142e-005,1.55273e-001,-7.47070e-002,9.73633e-001,5.24390e+000,-1.74390e+001,-1.09756e+000
-1.44350e-005,5.89151e-005,1.81152e-001,-7.51953e-002,9.67773e-001,4.63415e+000,-1.77439e+001,-1.46341e+000
-1.74563e-005,3.77661e-005,1.93848e-001,-7.47070e-002,9.66309e-001,4.26829e+000,-1.79268e+001,-1.89024e+000
-2.03098e-005,2.40024e-005,1.99707e-001,-7.27539e-002,9.52148e-001,4.45122e+000,-1.74390e+001,-2.07317e+000
-2.29953e-005,1.25887e-005,2.01660e-001,-7.12891e-002,9.31152e-001,4.02439e+000,-1.71951e+001,-2.31707e+000
-1.86313e-005,9.56741e-006,2.03613e-001,-6.68945e-002,9.26758e-001,3.47561e+000,-1.59756e+001,-2.80488e+000
-1.56100e-005,1.09102e-005,2.00684e-001,-7.08008e-002,9.32129e-001,3.29268e+000,-1.50610e+001,-2.98780e+000
-1.25887e-005,-1.67849e-006,2.06543e-001,-7.08008e-002,9.38477e-001,2.50000e+000,-1.29268e+001,-2.98780e+000
-1.35958e-005,-3.52483e-006,2.13379e-001,-8.39844e-002,9.48730e-001,1.15854e+000,-1.15244e+001,-3.10976e+000
-1.74563e-005,8.39246e-007,2.26074e-001,-8.64258e-002,9.60449e-001,-2.43902e-001,-7.98780e+000,-1.95122e+000
-1.35958e-005,-1.82956e-005,2.58789e-001,-9.27734e-002,9.76563e-001,-8.53659e-001,-7.31707e+000,-1.52439e+000
-7.21752e-006,-3.82696e-005,2.78320e-001,-9.32617e-002,9.79980e-001,-9.14634e-001,-6.64634e+000,-7.92683e-001
-1.09102e-005,-3.64233e-005,3.13965e-001,-9.08203e-002,9.80957e-001,-4.26829e-001,-6.15854e+000,-5.48781e-001
-1.17494e-005,-2.13169e-005,3.28125e-001,-9.42383e-002,9.83398e-001,-9.75610e-001,-5.36585e+000,-4.26829e-001
-9.23171e-006,1.76242e-005,3.42773e-001,-8.88672e-002,9.82910e-001,-7.31707e-001,-4.87805e+000,-6.70732e-001
-9.56741e-006,6.27756e-005,3.41309e-001,-8.83789e-002,9.82910e-001,-9.14634e-001,-4.02439e+000,-1.89024e+000
-1.32601e-005,3.67590e-005,3.24219e-001,-8.98438e-002,9.80957e-001,-6.09756e-002,-3.78049e+000,-4.93902e+000
-1.52743e-005,-4.41444e-005,2.99805e-001,-8.93555e-002,9.73633e-001,5.48781e-001,-3.41463e+000,-6.15854e+000
-1.74563e-005,-7.31823e-005,2.38770e-001,-9.37500e-002,9.53125e-001,1.89024e+000,-1.52439e+000,-8.65854e+000
-2.19883e-005,-4.31373e-005,2.00195e-001,-9.76563e-002,9.49219e-001,1.58537e+000,-2.43902e-001,-9.39024e+000
-2.63523e-005,-6.54612e-006,1.32324e-001,-1.01563e-001,9.38477e-001,2.37805e+000,6.70732e-001,-9.69512e+000
-2.60166e-005,7.04967e-006,1.04492e-001,-1.11328e-001,9.10645e-001,2.56098e+000,-5.48781e-001,-9.75610e+000
-2.40024e-005,-1.32601e-005,6.64063e-002,-1.23535e-001,8.03711e-001,4.32927e+000,-5.67073e+000,-1.06707e+001
-2.53452e-005,-4.38087e-005,4.39453e-002,-1.26953e-001,7.49512e-001,4.81707e+000,-7.31707e+000,-1.09146e+001
-2.65202e-005,-4.43122e-005,-2.68555e-002,-1.38184e-001,6.89941e-001,5.12195e+000,-6.28049e+000,-1.01829e+001
-2.58488e-005,-1.66171e-005,-8.20313e-002,-1.57715e-001,6.97266e-001,5.42683e+000,-4.81707e+000,-8.84146e+000
-2.50095e-005,-1.56100e-005,-9.81445e-002,-1.72852e-001,7.10449e-001,5.12195e+000,-1.52439e+000,-5.18293e+000
-2.43381e-005,-1.37636e-005,-8.69141e-002,-2.02148e-001,7.48535e-001,5.30488e+000,-3.04878e-001,-3.10976e+000
-2.50095e-005,-2.01419e-006,-7.17773e-002,-2.10938e-001,7.70020e-001,5.30488e+000,6.09756e-001,6.70732e-001
-2.46738e-005,-6.21042e-006,-8.30078e-003,-2.26074e-001,7.99316e-001,5.48780e+000,-1.82927e-001,1.95122e+000
-2.55131e-005,-9.56741e-006,3.02734e-002,-2.24609e-001,7.96387e-001,6.15854e+000,-7.19512e+000,2.43902e+000
-2.36667e-005,-3.69268e-006,9.27734e-002,-2.00195e-001,7.68066e-001,6.95122e+000,-1.15244e+001,1.82927e+000
-2.09812e-005,0.00000e+000,9.91211e-002,-1.87012e-001,7.57813e-001,8.71951e+000,-1.75000e+001,-1.09756e+000
-1.99741e-005,1.67849e-007,7.81250e-002,-1.66016e-001,7.55859e-001,9.08537e+000,-1.89024e+001,-2.13415e+000
-1.82956e-005,0.00000e+000,5.66406e-002,-1.58691e-001,7.63672e-001,1.17073e+001,-2.07317e+001,-3.53659e+000
-1.82956e-005,3.86053e-006,2.88086e-002,-1.51855e-001,7.94434e-001,1.29268e+001,-2.12195e+001,-3.84146e+000
-1.86313e-005,8.22461e-006,1.70898e-002,-1.50879e-001,8.22754e-001,1.33537e+001,-2.07927e+001,-3.29268e+000
-2.28275e-005,1.12459e-005,2.39258e-002,-1.45508e-001,8.87695e-001,1.29878e+001,-1.88415e+001,-3.65854e-001
-2.13169e-005,7.88891e-006,4.34570e-002,-1.39648e-001,9.12598e-001,1.29268e+001,-1.86585e+001,1.15854e+000
-1.04067e-005,-2.50095e-005,1.10352e-001,-1.09863e-001,9.40918e-001,1.17073e+001,-1.98171e+001,3.29268e+000
-1.67849e-006,-6.09293e-005,1.58691e-001,-9.13086e-002,9.50195e-001,1.07317e+001,-2.03659e+001,3.53659e+000
-4.19623e-006,-7.03288e-005,2.51465e-001,-2.19727e-002,1.01221e+000,5.91463e+000,-1.76220e+001,3.17073e+000
-1.24208e-005,-6.76432e-005,2.75391e-001,2.19727e-002,1.11377e+000,-1.21951e-001,-1.20122e+001,2.98780e+000
-2.16526e-005,-3.07164e-005,2.37793e-001,3.07617e-002,1.24316e+000,-4.51220e+000,-1.52439e+001,5.00000e+000
-3.50805e-005,3.64233e-005,2.82715e-001,2.92969e-002,1.17383e+000,-7.31707e-001,-2.22561e+001,6.82927e+000
-5.53903e-005,9.21492e-005,4.25293e-001,4.54102e-002,9.62891e-001,1.70732e+000,-1.92683e+001,1.07317e+001
-6.12650e-005,1.09606e-004,4.83887e-001,4.88281e-002,9.30176e-001,2.43902e-001,-1.34146e+001,1.28659e+001
-6.61326e-005,1.05913e-004,5.15625e-001,4.10156e-002,9.66797e-001,-3.17073e+000,-9.02439e+000,1.87805e+001
-6.56291e-005,5.79080e-005,5.49316e-001,1.90430e-002,1.02881e+000,-3.41463e+000,-9.39024e+000,2.06098e+001
-2.93736e-005,6.71397e-007,5.29785e-001,5.85938e-003,1.03857e+000,4.26829e-001,-8.41463e+000,2.14024e+001
5.70687e-006,-1.29244e-005,4.28711e-001,-1.46484e-003,1.03760e+000,2.13415e+000,-6.64634e+000,1.94512e+001
4.53193e-005,-1.32601e-005,3.73535e-001,-7.81250e-003,1.04346e+000,2.86585e+000,-1.03659e+000,1.36585e+001
5.52224e-005,-2.83665e-005,2.77344e-001,-2.05078e-002,1.07129e+000,2.13415e+000,7.31707e-001,1.06098e+001
4.51514e-005,-3.69268e-005,2.59277e-001,-3.41797e-002,1.08496e+000,-9.75610e-001,1.70732e+000,4.87805e+000
3.84375e-005,-2.16526e-005,2.65625e-001,-5.71289e-002,1.09863e+000,-2.31707e+000,1.52439e+000,2.86585e+000
4.31373e-005,-1.79599e-005,2.87598e-001,-6.25000e-002,1.10254e+000,-3.84146e+000,1.28049e+000,1.03659e+000
4.85084e-005,-1.89670e-005,3.26660e-001,-6.78711e-002,1.10010e+000,-4.81707e+000,4.26829e-001,4.87805e-001
1.30922e-005,-1.52743e-005,3.38379e-001,-6.68945e-002,1.09229e+000,-5.73171e+000,-4.87805e-001,6.09756e-001
-2.11490e-005,-1.64492e-005,3.44238e-001,-6.64063e-002,1.08008e+000,-5.97561e+000,-6.09756e-002,1.15854e+000
-1.86313e-005,-2.03098e-005,3.39844e-001,-6.64063e-002,1.07178e+000,-6.89024e+000,-1.21951e+000,1.03659e+000
-1.02388e-005,-2.50095e-005,3.38867e-001,-7.81250e-002,1.04248e+000,-6.70732e+000,-3.65854e+000,-7.31707e-001
-3.18914e-006,-2.24918e-005,3.26660e-001,-8.20313e-002,1.02539e+000,-7.13415e+000,-5.12195e+000,-2.37805e+000
-1.51064e-006,-1.54421e-005,2.72461e-001,-8.78906e-002,9.73145e-001,-6.89024e+000,-6.28049e+000,-5.60976e+000
-7.04967e-006,-6.37827e-006,2.38281e-001,-8.00781e-002,9.49219e-001,-7.13415e+000,-6.15854e+000,-6.52439e+000
-1.17494e-005,-2.51774e-006,1.58691e-001,-8.25195e-002,9.32617e-001,-8.47561e+000,-2.31707e+000,-6.03659e+000
-1.30922e-005,-8.72816e-006,9.57031e-002,-9.76563e-002,9.34570e-001,-8.78049e+000,-1.82927e-001,-5.30488e+000
-1.81277e-005,-1.15816e-005,7.86133e-002,-1.12305e-001,9.39453e-001,-8.90244e+000,3.65854e+000,-2.31707e+000
-2.33310e-005,-1.24208e-005,5.61523e-002,-1.41113e-001,9.35059e-001,-8.47561e+000,5.67073e+000,-6.70732e-001
-2.97093e-005,-5.53903e-006,5.56641e-002,-1.49902e-001,9.35059e-001,-8.04878e+000,8.71951e+000,2.68293e+000
-5.45510e-005,-8.39246e-007,7.32422e-002,-1.62109e-001,9.39941e-001,-8.65854e+000,9.75610e+000,4.02439e+000
-6.12650e-005,5.03548e-006,9.03320e-002,-1.63574e-001,9.52637e-001,-1.14024e+001,1.09756e+001,5.91463e+000
-4.24659e-005,7.88891e-006,1.24512e-001,-1.77246e-001,9.71191e-001,-1.24390e+001,1.20122e+001,6.28049e+000
-2.36667e-005,5.53903e-006,1.37695e-001,-1.75781e-001,9.76074e-001,-1.40854e+001,1.35366e+001,6.82927e+000
-1.24208e-005,1.12459e-005,1.72363e-001,-1.71875e-001,9.59473e-001,-1.48171e+001,1.31098e+001,6.95122e+000
1.51064e-006,1.79599e-005,1.89453e-001,-1.66504e-001,9.46289e-001,-1.55488e+001,1.20122e+001,6.82927e+000
6.54612e-006,2.23239e-005,2.08008e-001,-1.60645e-001,8.77441e-001,-1.53049e+001,1.13415e+001,6.76829e+000
1.84634e-006,1.99741e-005,2.04102e-001,-1.65039e-001,8.27148e-001,-1.34146e+001,1.17073e+001,6.64634e+000
4.69978e-006,1.29244e-005,1.68457e-001,-1.79199e-001,7.02148e-001,-1.15854e+001,1.22561e+001,6.82927e+000
1.30922e-005,8.39246e-007,1.49414e-001,-1.94336e-001,6.25000e-001,-5.79268e+000,1.22561e+001,7.07317e+000
1.25887e-005,-1.15816e-005,8.74023e-002,-2.28027e-001,4.83887e-001,8.53659e-001,1.16463e+001,6.58537e+000
5.70687e-006,-1.89670e-005,3.90625e-002,-2.47559e-001,4.51172e-001,3.41463e+000,1.21951e+001,5.79268e+000
-1.96384e-005,-1.51064e-005,-9.37500e-002,-2.85156e-001,4.55566e-001,7.56098e+000,1.30488e+001,4.32927e+000
-4.04517e-005,-7.04967e-006,-1.59668e-001,-3.01270e-001,4.80469e-001,8.65854e+000,1.29878e+001,3.35366e+000
-4.51514e-005,-1.09102e-005,-2.76855e-001,-3.32520e-001,5.70313e-001,9.93902e+000,1.31707e+001,4.87805e-001
-3.42412e-005,-2.78630e-005,-3.18848e-001,-3.45703e-001,6.23047e-001,9.87805e+000,1.28049e+001,-9.14634e-001
-3.25628e-005,-2.93736e-005,-3.53516e-001,-3.54004e-001,7.12891e-001,8.59756e+000,8.59756e+000,-2.74390e+000
-3.15557e-005,-2.76951e-005,-3.07617e-001,-3.37402e-001,7.81738e-001,7.86585e+000,6.03659e+000,-3.65854e+000
-3.13878e-005,-2.78630e-005,-2.63672e-001,-3.20313e-001,8.08594e-001,5.48780e+000,8.53659e-001,-4.57317e+000
-2.71916e-005,-2.36667e-005,-1.45020e-001,-2.73926e-001,8.78418e-001,4.26829e+000,-1.21951e+000,-4.63415e+000
-2.48417e-005,-1.39315e-005,-7.47070e-002,-2.50000e-001,9.18457e-001,2.86585e+000,-5.24390e+000,-4.32927e+000
-2.36667e-005,-7.21752e-006,7.81250e-002,-2.03125e-001,9.63379e-001,1.82927e+000,-7.50000e+000,-3.96341e+000
-2.23239e-005,-3.18914e-006,1.56738e-001,-1.80176e-001,9.79492e-001,1.28049e+000,-1.03659e+001,-2.37805e+000
-2.06455e-005,-5.87472e-006,2.96875e-001,-1.35742e-001,1.00244e+000,1.28049e+000,-1.10366e+001,-1.64634e+000
-1.44350e-005,-1.05745e-005,3.53516e-001,-1.16211e-001,1.01514e+000,2.13415e+000,-1.04268e+001,-7.92683e-001
-8.22461e-006,-9.73526e-006,4.37012e-001,-6.78711e-002,1.02002e+000,2.86585e+000,-9.87805e+000,-5.48781e-001
-4.53193e-006,-3.02129e-006,4.61426e-001,-4.34570e-002,1.01172e+000,5.30488e+000,-8.47561e+000,-7.31707e-001
-9.56741e-006,-2.51774e-006,4.69238e-001,1.95313e-003,9.74121e-001,6.64634e+000,-6.89024e+000,-9.14634e-001
-1.62814e-005,1.00710e-006,4.52148e-001,2.00195e-002,9.64844e-001,9.20732e+000,-1.95122e+000,-3.17073e+000
-1.76242e-005,6.71397e-006,3.87207e-001,4.34570e-002,9.74609e-001,1.00610e+001,1.21951e+000,-3.84146e+000
-1.35958e-005,4.53193e-006,3.48633e-001,4.63867e-002,1.00049e+000,1.00610e+001,6.28049e+000,-4.93902e+000
-3.86053e-006,3.18914e-006,2.89551e-001,3.80859e-002,1.05518e+000,9.93902e+000,9.81707e+000,-5.24390e+000
-5.87472e-006,5.53903e-006,2.70508e-001,3.41797e-002,1.07715e+000,9.69512e+000,1.10976e+001,-4.87805e+000
-1.02388e-005,1.02388e-005,2.52441e-001,2.68555e-002,1.11572e+000,8.29268e+000,1.42683e+001,-4.51220e+000
-8.89601e-006,1.30922e-005,2.42676e-001,2.29492e-002,1.12598e+000,7.50000e+000,1.46341e+001,-4.08537e+000
-4.86763e-006,1.19173e-005,2.58301e-001,2.83203e-002,1.12158e+000,6.03659e+000,1.27439e+001,-3.96341e+000
-3.18914e-006,1.37636e-005,2.70996e-001,3.02734e-002,1.10889e+000,5.24390e+000,1.18293e+001,-4.08537e+000
-1.05745e-005,1.35958e-005,2.75879e-001,1.80664e-002,1.08740e+000,4.75610e+000,1.18293e+001,-4.26829e+000
-2.33310e-005,1.17494e-005,2.56348e-001,4.88281e-004,1.07031e+000,4.87805e+000,1.31707e+001,-4.45122e+000
-2.31632e-005,-2.34989e-006,2.39258e-001,-1.36719e-002,1.05566e+000,4.81707e+000,1.56707e+001,-4.81707e+000
-9.23171e-006,-3.20592e-005,2.08984e-001,-3.66211e-002,1.01318e+000,4.45122e+000,1.62195e+001,-5.18293e+000
8.39246e-007,-5.58938e-005,1.95801e-001,-4.58984e-002,9.83887e-001,3.90244e+000,1.30488e+001,-5.79268e+000
-3.35698e-007,-5.90829e-005,1.77246e-001,-5.66406e-002,9.22363e-001,3.65854e+000,1.05488e+001,-6.40244e+000
-5.03548e-007,-4.06195e-005,1.63086e-001,-6.20117e-002,9.00879e-001,2.74390e+000,5.97561e+000,-7.43902e+000
-2.18204e-006,-1.44350e-005,1.24023e-001,-7.22656e-002,8.70605e-001,1.76829e+000,4.39024e+000,-7.43902e+000
-3.02129e-006,-2.34989e-006,1.08398e-001,-7.95898e-002,8.56934e-001,7.92683e-001,-3.04878e-001,-6.64634e+000
-6.21042e-006,1.17494e-006,7.61719e-002,-1.02539e-001,7.90039e-001,1.28049e+000,-3.53659e+000,-6.15854e+000
-1.62814e-005,2.73594e-005,6.10352e-002,-1.11328e-001,7.46094e-001,2.43902e+000,-1.12805e+001,-5.60976e+000
-2.93736e-005,4.73335e-005,8.30078e-003,-1.26953e-001,6.79199e-001,2.74390e+000,-1.39024e+001,-5.24390e+000
-1.66171e-005,4.34730e-005,-3.12500e-002,-1.40137e-001,6.64063e-001,3.65854e+000,-1.54878e+001,-3.53659e+000
-8.39246e-007,2.78630e-005,-9.13086e-002,-1.69922e-001,6.44531e-001,4.26829e+000,-1.70122e+001,3.04878e-001
-2.34989e-006,5.03548e-007,-1.13281e-001,-1.83105e-001,6.43555e-001,5.60976e+000,-1.84756e+001,2.31707e+000
-1.51064e-006,-8.89601e-006,-1.35742e-001,-2.15332e-001,6.68457e-001,5.91463e+000,-2.06707e+001,5.85366e+000
1.05745e-005,6.54612e-006,-1.31836e-001,-2.25098e-001,7.00195e-001,5.79268e+000,-2.22561e+001,7.62195e+000
9.56741e-006,1.76242e-005,-1.00098e-001,-2.48535e-001,7.65625e-001,5.73171e+000,-2.68293e+001,9.87805e+000
9.73526e-006,3.35698e-007,-7.66602e-002,-2.50977e-001,7.82715e-001,5.60976e+000,-2.96341e+001,1.06098e+001
2.51774e-006,-7.21752e-006,-1.95313e-002,-2.43652e-001,7.89551e-001,5.79268e+000,-3.31098e+001,1.12805e+001
-1.02388e-005,3.20592e-005,1.07422e-002,-2.26563e-001,7.90039e-001,5.91463e+000,-3.39634e+001,1.10366e+001
-1.44350e-005,7.43572e-005,7.27539e-002,-1.86035e-001,7.93457e-001,5.97561e+000,-3.33537e+001,9.51220e+000
-1.87991e-005,9.09743e-005,1.10352e-001,-1.53809e-001,8.32031e-001,5.67073e+000,-3.23171e+001,8.41463e+000
-2.73594e-005,6.26078e-005,1.24512e-001,-1.42578e-001,8.61328e-001,5.73171e+000,-2.92683e+001,7.07317e+000
-3.81018e-005,3.08843e-005,1.65527e-001,-1.26465e-001,9.09668e-001,5.97561e+000,-2.80488e+001,6.76829e+000
-3.17235e-005,1.19173e-005,1.92871e-001,-1.22070e-001,9.30664e-001,6.70732e+000,-2.65244e+001,7.13415e+000
-1.15816e-005,2.85344e-006,2.59766e-001,-1.08398e-001,9.72656e-001,7.07317e+000,-2.62805e+001,7.07317e+000
-8.39246e-006,-1.62814e-005,2.91992e-001,-9.81445e-002,9.89746e-001,7.37805e+000,-2.53659e+001,7.13415e+000
-1.09102e-005,-2.51774e-005,3.46680e-001,-8.10547e-002,1.00537e+000,7.43902e+000,-2.53659e+001,7.19512e+000
-1.46029e-005,-2.24918e-005,3.67188e-001,-6.78711e-002,1.00195e+000,8.04878e+000,-2.50000e+001,7.43902e+000
-2.09812e-005,-2.87022e-005,3.97949e-001,-3.41797e-002,9.85840e-001,7.80488e+000,-2.46951e+001,7.80488e+000
-2.78630e-005,-4.38087e-005,4.00879e-001,-2.49023e-002,9.65820e-001,7.62195e+000,-2.28049e+001,8.59756e+000
-2.92058e-005,-5.80758e-005,4.00879e-001,3.41797e-003,9.58984e-001,7.37805e+000,-2.06707e+001,9.08537e+000
-3.07164e-005,-7.28466e-005,3.91602e-001,1.17188e-002,1.00146e+000,2.62195e+000,-1.09756e+001,9.87805e+000
-3.07164e-005,-6.79789e-005,3.03711e-001,4.39453e-003,1.09180e+000,-3.65854e-001,-2.98780e+000,1.12195e+001
-2.48417e-005,-4.04517e-005,2.78320e-001,-1.85547e-002,1.05469e+000,1.82927e+000,-4.57317e+000,1.25610e+001
-2.40024e-005,9.56741e-006,3.19336e-001,-3.02734e-002,9.23340e-001,5.24390e+000,-2.62195e+000,1.31707e+001
-2.06455e-005,3.60876e-005,3.33984e-001,-2.63672e-002,9.04297e-001,3.78049e+000,2.98780e+000,1.27439e+001
-2.06455e-005,-1.42672e-005,3.29102e-001,-3.12500e-002,9.39453e-001,-2.43902e-001,1.09756e+001,1.29878e+001
-2.40024e-005,-6.59647e-005,3.27637e-001,-3.22266e-002,9.77051e-001,-1.03659e+000,1.29878e+001,1.29268e+001
-3.03807e-005,-7.35180e-005,3.00293e-001,-5.22461e-002,1.02393e+000,1.40244e+000,1.70732e+001,1.04878e+001
-3.30663e-005,-8.61067e-005,2.70508e-001,-6.54297e-002,1.02539e+000,3.10976e+000,1.83537e+001,8.65854e+000
-3.25628e-005,-5.27047e-005,2.17773e-001,-7.61719e-002,1.00049e+000,3.84146e+000,1.77439e+001,2.13415e+000
-3.07164e-005,4.78370e-005,1.63086e-001,-8.39844e-002,9.82422e-001,3.35366e+000,1.64024e+001,-1.58537e+000
-2.58488e-005,8.27497e-005,1.43555e-001,-8.88672e-002,9.70703e-001,2.37805e+000,1.35366e+001,-6.89024e+000
-2.51774e-005,6.56291e-005,1.22070e-001,-9.17969e-002,9.29688e-001,2.31707e+000,1.18902e+001,-9.08537e+000
-2.83665e-005,7.90570e-005,1.16699e-001,-9.32617e-002,9.10645e-001,9.14634e-001,8.53659e+000,-1.12805e+001
-3.03807e-005,6.83146e-005,1.07422e-001,-1.08887e-001,8.89160e-001,3.65854e-001,6.70732e+000,-1.15854e+001
-2.90379e-005,2.55131e-005,1.02051e-001,-1.11328e-001,8.77930e-001,2.43902e-001,3.10976e+000,-1.20122e+001
-2.56809e-005,6.21042e-006,8.00781e-002,-1.26953e-001,8.75488e-001,-1.82927e-001,1.64634e+000,-1.18902e+001
-2.66880e-005,-9.56741e-006,7.12891e-002,-1.34766e-001,8.83789e-001,-1.28049e+000,5.48781e-001,-1.05488e+001
-2.16526e-005,-2.41703e-005,5.95703e-002,-1.44043e-001,9.16016e-001,-1.21951e+000,7.31707e-001,-9.81707e+000
-1.05745e-005,-1.72885e-005,6.25000e-002,-1.45996e-001,9.35059e-001,-2.80488e+000,7.31707e-001,-8.23171e+000
6.54612e-006,-1.66171e-005,7.76367e-002,-1.48438e-001,9.67285e-001,-4.39024e+000,5.48781e-001,-7.43902e+000
-2.85344e-006,-3.20592e-005,8.98438e-002,-1.45508e-001,9.79980e-001,-6.40244e+000,1.52439e+000,-5.79268e+000
-1.32601e-005,-2.26596e-005,1.29883e-001,-1.44531e-001,1.00830e+000,-8.29268e+000,2.43902e+000,-4.08537e+000
-1.37636e-005,-8.56031e-006,1.41113e-001,-1.46973e-001,1.00049e+000,-8.90244e+000,2.19512e+000,-2.92683e+000
-5.87472e-006,-1.56100e-005,1.76270e-001,-1.37207e-001,9.39941e-001,-8.59756e+000,-1.82927e-001,-1.64634e+000
-4.19623e-006,-3.10521e-005,1.91895e-001,-1.35254e-001,9.07227e-001,-8.47561e+000,-9.14634e-001,-1.15854e+000
-7.72107e-006,-3.15557e-005,1.78711e-001,-1.47461e-001,8.27637e-001,-6.34146e+000,4.87805e-001,4.87805e-001
-1.76242e-005,-2.34989e-005,1.51855e-001,-1.52832e-001,7.69531e-001,-3.96341e+000,7.92683e-001,1.15854e+000
-1.62814e-005,-1.82956e-005,9.81445e-002,-1.75781e-001,6.24023e-001,1.34146e+000,1.89024e+000,2.86585e+000
-1.24208e-005,-1.46029e-005,6.64063e-002,-1.94336e-001,5.67383e-001,4.20732e+000,2.13415e+000,3.65854e+000
-1.19173e-005,-8.89601e-006,-6.34766e-003,-2.38281e-001,4.92676e-001,1.14634e+001,4.87805e-001,5.24390e+000
-1.30922e-005,-4.19623e-006,-9.22852e-002,-2.75879e-001,5.19043e-001,1.42683e+001,-1.15854e+000,5.73171e+000
-8.89601e-006,-5.70687e-006,-1.41113e-001,-2.90039e-001,5.59082e-001,1.93902e+001,-5.36585e+000,5.18293e+000
-3.35698e-006,0.00000e+000,-2.36816e-001,-3.08594e-001,6.54297e-001,2.13415e+001,-8.65854e+000,4.69512e+000
-2.34989e-006,3.86053e-006,-2.82715e-001,-3.01758e-001,7.09961e-001,2.39634e+001,-1.66463e+001,1.89024e+000
-1.67849e-006,5.87472e-006,-3.12988e-001,-2.66113e-001,7.98828e-001,2.47561e+001,-1.94512e+001,6.09756e-001
8.39246e-007,9.90310e-006,-3.00293e-001,-2.37305e-001,8.34961e-001,2.13415e+001,-2.45732e+001,-3.65854e-001
2.01419e-006,9.23171e-006,-1.92383e-001,-1.78711e-001,8.89160e-001,1.93902e+001,-2.67683e+001,4.26829e-001
-2.51774e-006,3.18914e-006,-9.86328e-002,-1.50879e-001,9.21875e-001,1.48780e+001,-3.18293e+001,1.58537e+000
-5.20333e-006,3.52483e-006,1.24023e-001,-8.98438e-002,1.02100e+000,1.26829e+001,-3.34146e+001,2.43902e+000
-6.88182e-006,6.54612e-006,2.40723e-001,-2.92969e-002,1.16650e+000,2.01220e+000,-2.74390e+001,4.63415e+000
-6.88182e-006,2.34989e-006,2.98340e-001,3.41797e-003,1.44287e+000,-6.82927e+000,-2.17073e+001,6.40244e+000
-7.21752e-006,-2.34989e-006,3.77930e-001,-9.76563e-004,1.33887e+000,-4.51220e+000,-4.09146e+001,1.64024e+001
-1.35958e-005,-6.21042e-006,6.80664e-001,5.07813e-002,9.64355e-001,3.65854e-001,-4.73171e+001,2.46951e+001
-1.42672e-005,-6.37827e-006,7.72949e-001,8.10547e-002,8.81348e-001,-4.26829e-001,-3.71951e+001,2.68902e+001
-1.02388e-005,-6.54612e-006,8.29102e-001,1.10352e-001,8.50586e-001,-1.40244e+000,-2.31098e+001,3.20732e+001
-3.69268e-006,-9.73526e-006,8.44727e-001,1.17676e-001,8.76465e-001,4.26829e-001,-2.03049e+001,3.38415e+001
5.03548e-007,-1.39315e-005,7.29980e-001,1.07422e-001,9.26270e-001,6.70732e+000,-1.20122e+001,3.12195e+001
-1.51064e-006,-1.19173e-005,5.98633e-001,1.05957e-001,9.40918e-001,9.26829e+000,-9.02439e+000,2.75000e+001
-3.02129e-006,-7.21752e-006,3.12988e-001,8.59375e-002,1.01758e+000,9.51220e+000,-3.65854e+000,1.70732e+001
-7.55322e-006,-6.37827e-006,1.81152e-001,6.68945e-002,1.06396e+000,8.29268e+000,-7.92683e-001,1.20732e+001
-1.34279e-005,-8.39246e-007,1.02539e-002,2.73438e-002,1.11816e+000,3.17073e+000,3.04878e-001,5.06098e+000
-1.39315e-005,5.70687e-006,-1.61133e-002,-2.00195e-002,1.16943e+000,-1.21951e-001,4.87805e-001,3.78049e+000
-1.93027e-005,1.64492e-005,2.19727e-002,-3.71094e-002,1.18311e+000,-4.02439e+000,-1.15854e+000,5.67073e+000
-2.95415e-005,1.91348e-005,1.73340e-001,-5.76172e-002,1.16602e+000,-5.48780e+000,-3.59756e+000,7.50000e+000
-3.67590e-005,7.88891e-006,2.60254e-001,-6.29883e-002,1.15039e+000,-5.91463e+000,-8.53659e+000,9.26829e+000
-4.34730e-005,1.00710e-006,4.00391e-001,-6.54297e-002,1.11621e+000,-6.76829e+000,-1.04878e+001,8.47561e+000
-4.85084e-005,1.17494e-006,4.43848e-001,-6.83594e-002,1.10303e+000,-8.35366e+000,-1.43293e+001,3.17073e+000
-6.00900e-005,-1.04067e-005,4.82910e-001,-7.22656e-002,1.07373e+000,-8.90244e+000,-1.63415e+001,-1.82927e-001
-5.65652e-005,-1.49386e-005,4.86328e-001,-6.78711e-002,1.05273e+000,-1.03049e+001,-1.82317e+001,-7.74390e+000
-2.92058e-005,-9.39956e-006,4.15039e-001,-6.83594e-002,1.00732e+000,-1.09756e+001,-1.76220e+001,-1.07927e+001
-3.52483e-006,-7.21752e-006,3.70117e-001,-6.49414e-002,9.87793e-001,-1.07927e+001,-1.33537e+001,-1.43902e+001
1.05745e-005,-1.67849e-007,2.63184e-001,-7.37305e-002,9.71680e-001,-1.02439e+001,-1.01220e+001,-1.43293e+001
7.88891e-006,2.36667e-005,2.16309e-001,-7.76367e-002,9.78027e-001,-9.14634e+000,-3.59756e+000,-1.10976e+001
5.03548e-007,4.06195e-005,1.45508e-001,-9.27734e-002,1.01123e+000,-8.23171e+000,2.25610e+000,-6.21951e+000
1.19173e-005,2.80308e-005,1.17676e-001,-1.04980e-001,1.02539e+000,-8.71951e+000,3.90244e+000,-4.02439e+000
1.40993e-005,7.04967e-006,8.93555e-002,-1.25977e-001,1.06055e+000,-1.01829e+001,5.60976e+000,-3.65854e-001
6.54612e-006,-1.27565e-005,8.34961e-002,-1.36719e-001,1.07959e+000,-1.13415e+001,6.46341e+000,1.09756e+000
1.51064e-006,-2.45060e-005,9.13086e-002,-1.54785e-001,1.11328e+000,-1.43902e+001,6.89024e+000,2.86585e+000
-8.89601e-006,-3.37377e-005,1.04980e-001,-1.66504e-001,1.11670e+000,-1.64634e+001,6.76829e+000,3.29268e+000
-1.99741e-005,-3.70947e-005,1.52344e-001,-1.85059e-001,1.11328e+000,-1.94512e+001,8.35366e+000,3.41463e+000
-2.16526e-005,-2.81987e-005,1.79688e-001,-1.91406e-001,1.09326e+000,-1.99390e+001,9.32927e+000,3.10976e+000
-3.10521e-005,-1.32601e-005,2.31934e-001,-2.08008e-001,1.02539e+000,-2.06707e+001,1.15854e+001,3.10976e+000
-4.48157e-005,-1.49386e-005,2.78320e-001,-2.08496e-001,9.40918e-001,-2.05488e+001,1.27439e+001,3.17073e+000
-2.29953e-005,-8.89601e-006,2.89063e-001,-2.18262e-001,9.01855e-001,-1.98171e+001,1.70122e+001,3.90244e+000
8.89601e-006,8.39246e-007,2.65625e-001,-2.30957e-001,7.51953e-001,-1.75000e+001,1.95732e+001,4.20732e+000
3.59197e-005,-7.21752e-006,2.33398e-001,-2.41211e-001,6.53320e-001,-1.24390e+001,2.20732e+001,4.39024e+000
4.09552e-005,-1.91348e-005,1.35254e-001,-2.66602e-001,4.61914e-001,-9.08537e+000,2.28049e+001,3.84146e+000
3.00450e-005,-8.56031e-006,7.17773e-002,-2.81738e-001,3.86719e-001,-1.21951e+000,2.57317e+001,2.92683e+000
1.32601e-005,9.23171e-006,-8.69141e-002,-3.29102e-001,3.12012e-001,1.95122e+000,2.72561e+001,2.80488e+000
-4.86763e-006,5.37118e-006,-1.68945e-001,-3.53516e-001,3.12988e-001,9.20732e+000,3.10976e+001,2.86585e+000
-1.69528e-005,-4.19623e-006,-3.39844e-001,-3.98438e-001,3.73047e-001,1.21951e+001,3.28049e+001,2.68293e+000
-2.03098e-005,-4.36408e-006,-4.09180e-001,-4.16016e-001,4.07715e-001,1.63415e+001,3.14024e+001,1.76829e+000
-2.76951e-005,-5.20333e-006,-4.99023e-001,-4.41406e-001,4.86816e-001,1.76220e+001,2.90854e+001,9.75610e-001
-3.03807e-005,-9.90310e-006,-5.12695e-001,-4.47754e-001,5.41016e-001,1.78049e+001,2.13415e+001,-2.19512e+000
-2.58488e-005,-2.16526e-005,-4.81445e-001,-4.37012e-001,6.40137e-001,1.53659e+001,1.05488e+001,-5.60976e+000
-2.60166e-005,-2.70237e-005,-4.37988e-001,-4.26758e-001,6.74316e-001,1.43293e+001,3.65854e+000,-6.76829e+000
-2.38346e-005,-1.77920e-005,-3.10547e-001,-3.85742e-001,6.78223e-001,1.37195e+001,-1.10976e+001,-8.17073e+000
-3.23949e-005,-6.21042e-006,-2.33398e-001,-3.60352e-001,6.77734e-001,1.29268e+001,-1.52439e+001,-8.71951e+000
-4.41444e-005,1.51064e-006,-1.04980e-001,-3.01270e-001,7.20703e-001,1.10366e+001,-1.42073e+001,-7.98780e+000
-4.75013e-005,1.42672e-005,-4.34570e-002,-2.73438e-001,7.54395e-001,1.02439e+001,-1.28049e+001,-6.82927e+000
-4.28016e-005,2.13169e-005,1.02051e-001,-2.27051e-001,8.08105e-001,9.75610e+000,-1.23780e+001,-4.08537e+000
