R FLEXOR CARPI RADIALIS: EMG 4 [V],R EXTENSOR DIGITORUM: EMG 5 [V],R IMU Wrist: ACC.X 6 [g],R IMU Wrist: ACC.Y 6 [g],R IMU Wrist: ACC.Z 6 [g],R IMU Wrist: GYRO.X 6 [°/s],R IMU Wrist: GYRO.Y 6 [°/s],R IMU Wrist: GYRO.Z 6 [°/s]
0.00000e+000,0.00000e+000,0.00000e+000,0.00000e+000,0.00000e+000,0.00000e+000,0.00000e+000,0.00000e+000
0.00000e+000,0.00000e+000,0.00000e+000,0.00000e+000,0.00000e+000,0.00000e+000,0.00000e+000,0.00000e+000
0.00000e+000,0.00000e+000,0.00000e+000,0.00000e+000,0.00000e+000,0.00000e+000,0.00000e+000,0.00000e+000
0.00000e+000,0.00000e+000,0.00000e+000,0.00000e+000,0.00000e+000,0.00000e+000,0.00000e+000,0.00000e+000
0.00000e+000,0.00000e+000,0.00000e+000,0.00000e+000,0.00000e+000,0.00000e+000,0.00000e+000,0.00000e+000
0.00000e+000,0.00000e+000,0.00000e+000,0.00000e+000,0.00000e+000,0.00000e+000,0.00000e+000,0.00000e+000
0.00000e+000,0.00000e+000,0.00000e+000,0.00000e+000,0.00000e+000,0.00000e+000,0.00000e+000,0.00000e+000
0.00000e+000,0.00000e+000,0.00000e+000,0.00000e+000,0.00000e+000,0.00000e+000,0.00000e+000,0.00000e+000
0.00000e+000,0.00000e+000,0.00000e+000,0.00000e+000,0.00000e+000,0.00000e+000,0.00000e+000,0.00000e+000
0.00000e+000,0.00000e+000,0.00000e+000,0.00000e+000,0.00000e+000,0.00000e+000,0.00000e+000,0.00000e+000
0.00000e+000,0.00000e+000,0.00000e+000,0.00000e+000,0.00000e+000,0.00000e+000,0.00000e+000,0.00000e+000
0.00000e+000,0.00000e+000,0.00000e+000,0.00000e+000,0.00000e+000,0.00000e+000,0.00000e+000,0.00000e+000
0.00000e+000,0.00000e+000,0.00000e+000,0.00000e+000,0.00000e+000,0.00000e+000,0.00000e+000,0.00000e+000
0.00000e+000,0.00000e+000,0.00000e+000,0.00000e+000,0.00000e+000,0.00000e+000,0.00000e+000,0.00000e+000
0.00000e+000,0.00000e+000,0.00000e+000,0.00000e+000,0.00000e+000,0.00000e+000,0.00000e+000,0.00000e+000
0.00000e+000,0.00000e+000,0.00000e+000,0.00000e+000,0.00000e+000,0.00000e+000,0.00000e+000,0.00000e+000
0.00000e+000,0.00000e+000,0.00000e+000,0.00000e+000,0.00000e+000,0.00000e+000,0.00000e+000,0.00000e+000
0.00000e+000,0.00000e+000,0.00000e+000,0.00000e+000,0.00000e+000,0.00000e+000,0.00000e+000,0.00000e+000
0.00000e+000,0.00000e+000,0.00000e+000,0.00000e+000,0.00000e+000,0.00000e+000,0.00000e+000,0.00000e+000
0.00000e+000,0.00000e+000,0.00000e+000,0.00000e+000,0.00000e+000,0.00000e+000,0.00000e+000,0.00000e+000
0.00000e+000,0.00000e+000,0.00000e+000,0.00000e+000,0.00000e+000,0.00000e+000,0.00000e+000,0.00000e+000
0.00000e+000,0.00000e+000,0.00000e+000,0.00000e+000,0.00000e+000,0.00000e+000,0.00000e+000,0.00000e+000
0.00000e+000,0.00000e+000,0.00000e+000,0.00000e+000,0.00000e+000,0.00000e+000,0.00000e+000,0.00000e+000
0.00000e+000,0.00000e+000,0.00000e+000,0.00000e+000,0.00000e+000,0.00000e+000,0.00000e+000,0.00000e+000
0.00000e+000,0.00000e+000,0.00000e+000,0.00000e+000,0.00000e+000,0.00000e+000,0.00000e+000,0.00000e+000
0.00000e+000,0.00000e+000,0.00000e+000,0.00000e+000,0.00000e+000,0.00000e+000,0.00000e+000,0.00000e+000
0.00000e+000,0.00000e+000,0.00000e+000,0.00000e+000,0.00000e+000,0.00000e+000,0.00000e+000,0.00000e+000
0.00000e+000,0.00000e+000,0.00000e+000,0.00000e+000,0.00000e+000,0.00000e+000,0.00000e+000,0.00000e+000
0.00000e+000,0.00000e+000,0.00000e+000,0.00000e+000,0.00000e+000,0.00000e+000,0.00000e+000,0.00000e+000
0.00000e+000,0.00000e+000,0.00000e+000,0.00000e+000,0.00000e+000,0.00000e+000,0.00000e+000,0.00000e+000
0.00000e+000,0.00000e+000,0.00000e+000,0.00000e+000,0.00000e+000,0.00000e+000,0.00000e+000,0.00000e+000
0.00000e+000,0.00000e+000,0.00000e+000,0.00000e+000,0.00000e+000,0.00000e+000,0.00000e+000,0.00000e+000
0.00000e+000,0.00000e+000,0.00000e+000,0.00000e+000,0.00000e+000,0.00000e+000,0.00000e+000,0.00000e+000
0.00000e+000,0.00000e+000,0.00000e+000,0.00000e+000,0.00000e+000,0.00000e+000,0.00000e+000,0.00000e+000
0.00000e+000,0.00000e+000,0.00000e+000,0.00000e+000,0.00000e+000,0.00000e+000,0.00000e+000,0.00000e+000
0.00000e+000,0.00000e+000,1.86035e-001,1.48926e-001,9.71680e-001,-1.15854e+000,-1.29878e+001,-2.25610e+000
0.00000e+000,0.00000e+000,1.84570e-001,1.53320e-001,9.55566e-001,-1.70732e+000,-1.18902e+001,-2.98780e+000
0.00000e+000,0.00000e+000,1.81152e-001,1.60156e-001,9.00391e-001,-1.76829e+000,-1.14024e+001,-3.35366e+000
0.00000e+000,0.00000e+000,1.84082e-001,1.57715e-001,8.75977e-001,-1.95122e+000,-9.63415e+000,-3.10976e+000
0.00000e+000,0.00000e+000,1.96777e-001,1.48926e-001,8.53516e-001,-1.95122e+000,-8.10976e+000,-2.74390e+000
0.00000e+000,0.00000e+000,2.03613e-001,1.50391e-001,8.50586e-001,-2.07317e+000,-6.64634e+000,-1.89024e+000
0.00000e+000,0.00000e+000,2.08496e-001,1.39648e-001,8.71582e-001,-1.82927e+000,-5.91463e+000,-1.58537e+000
0.00000e+000,0.00000e+000,2.06543e-001,1.35742e-001,8.93555e-001,-2.01220e+000,-5.30488e+000,-1.03659e+000
0.00000e+000,0.00000e+000,2.05566e-001,1.34277e-001,9.26270e-001,-1.70732e+000,-5.42683e+000,-1.15854e+000
0.00000e+000,0.00000e+000,2.05566e-001,1.32813e-001,9.36035e-001,-1.09756e+000,-5.00000e+000,-1.21951e+000
0.00000e+000,0.00000e+000,2.05078e-001,1.31348e-001,9.21387e-001,-5.48781e-001,-4.69512e+000,-1.46341e+000
0.00000e+000,0.00000e+000,2.07031e-001,1.33789e-001,9.10645e-001,-3.04878e-001,-3.59756e+000,-1.89024e+000
0.00000e+000,0.00000e+000,2.15820e-001,1.37207e-001,8.83301e-001,1.82927e-001,-1.76829e+000,-2.07317e+000
0.00000e+000,0.00000e+000,2.17773e-001,1.38672e-001,8.71094e-001,4.87805e-001,-4.87805e-001,-1.82927e+000
0.00000e+000,0.00000e+000,2.07031e-001,1.38672e-001,8.62793e-001,4.87805e-001,1.28049e+000,-1.76829e+000
0.00000e+000,0.00000e+000,2.02148e-001,1.37207e-001,8.64258e-001,3.65854e-001,1.95122e+000,-1.58537e+000
0.00000e+000,0.00000e+000,1.87988e-001,1.32324e-001,8.77441e-001,6.09756e-001,1.58537e+000,-1.40244e+000
0.00000e+000,0.00000e+000,1.70898e-001,1.29395e-001,8.83301e-001,7.31707e-001,1.46341e+000,-1.15854e+000
0.00000e+000,0.00000e+000,1.54785e-001,1.27930e-001,8.91113e-001,1.89024e+000,1.03659e+000,-9.14634e-001
0.00000e+000,0.00000e+000,1.47461e-001,1.22070e-001,8.87207e-001,2.25610e+000,1.03659e+000,-9.75610e-001
0.00000e+000,0.00000e+000,1.41113e-001,1.16699e-001,8.87207e-001,3.47561e+000,5.48781e-001,-1.28049e+000
0.00000e+000,0.00000e+000,1.40625e-001,1.17676e-001,8.90137e-001,3.78049e+000,5.48781e-001,-1.21951e+000
0.00000e+000,0.00000e+000,1.38672e-001,1.18164e-001,8.93555e-001,3.90244e+000,-1.21951e-001,-1.15854e+000
0.00000e+000,0.00000e+000,1.45020e-001,1.21582e-001,9.03320e-001,3.65854e+000,-5.48781e-001,-1.82927e+000
0.00000e+000,0.00000e+000,1.51367e-001,1.23535e-001,9.12109e-001,4.32927e+000,-1.58537e+000,-2.19512e+000
0.00000e+000,0.00000e+000,1.58691e-001,1.19141e-001,9.33105e-001,4.57317e+000,-1.89024e+000,-2.56098e+000
0.00000e+000,0.00000e+000,1.64063e-001,1.17676e-001,9.47266e-001,5.30488e+000,-1.28049e+000,-3.17073e+000
0.00000e+000,0.00000e+000,1.70898e-001,1.15723e-001,9.70703e-001,5.85366e+000,-7.92683e-001,-3.53659e+000
0.00000e+000,0.00000e+000,1.76758e-001,1.18652e-001,9.84375e-001,6.34146e+000,0.00000e+000,-4.20732e+000
0.00000e+000,0.00000e+000,1.72852e-001,1.19141e-001,1.00244e+000,6.95122e+000,7.92683e-001,-4.14634e+000
0.00000e+000,0.00000e+000,1.74805e-001,1.20605e-001,1.00244e+000,6.76829e+000,1.82927e+000,-5.12195e+000
0.00000e+000,0.00000e+000,1.64551e-001,1.25000e-001,9.89258e-001,6.89024e+000,2.56098e+000,-5.42683e+000
0.00000e+000,0.00000e+000,1.62598e-001,1.27930e-001,9.75586e-001,6.76829e+000,4.32927e+000,-5.91463e+000
0.00000e+000,0.00000e+000,1.56250e-001,1.36230e-001,9.39941e-001,7.13415e+000,6.15854e+000,-6.21951e+000
0.00000e+000,0.00000e+000,1.58203e-001,1.39648e-001,9.24805e-001,6.58537e+000,6.64634e+000,-6.28049e+000
0.00000e+000,0.00000e+000,1.58203e-001,1.48926e-001,9.05762e-001,7.01220e+000,8.23171e+000,-6.76829e+000
0.00000e+000,0.00000e+000,1.53809e-001,1.49902e-001,9.00879e-001,6.52439e+000,8.10976e+000,-7.07317e+000
0.00000e+000,0.00000e+000,1.51855e-001,1.54785e-001,9.05762e-001,5.67073e+000,7.80488e+000,-7.68293e+000
0.00000e+000,0.00000e+000,1.47461e-001,1.54297e-001,9.05273e-001,5.60976e+000,7.98780e+000,-7.62195e+000
0.00000e+000,0.00000e+000,1.40625e-001,1.55273e-001,9.15527e-001,5.48780e+000,8.29268e+000,-8.17073e+000
0.00000e+000,0.00000e+000,1.37207e-001,1.56738e-001,9.13574e-001,5.73171e+000,8.47561e+000,-8.53659e+000
0.00000e+000,0.00000e+000,1.43555e-001,1.46973e-001,9.02832e-001,5.60976e+000,9.69512e+000,-8.59756e+000
0.00000e+000,0.00000e+000,1.60156e-001,1.52344e-001,8.95508e-001,5.54878e+000,1.04878e+001,-8.65854e+000
0.00000e+000,0.00000e+000,1.71875e-001,1.53320e-001,8.92578e-001,5.48780e+000,1.10366e+001,-9.02439e+000
0.00000e+000,0.00000e+000,1.87500e-001,1.56250e-001,8.98438e-001,5.85366e+000,1.20122e+001,-9.20732e+000
0.00000e+000,0.00000e+000,1.93848e-001,1.56250e-001,9.00391e-001,4.81707e+000,1.20122e+001,-9.63415e+000
0.00000e+000,0.00000e+000,2.00684e-001,1.47461e-001,9.06738e-001,4.75610e+000,1.25000e+001,-9.93902e+000
0.00000e+000,0.00000e+000,1.99219e-001,1.46484e-001,9.11621e-001,4.08537e+000,1.25000e+001,-1.01829e+001
0.00000e+000,0.00000e+000,1.99219e-001,1.45508e-001,9.09180e-001,3.84146e+000,1.24390e+001,-1.03659e+001
0.00000e+000,0.00000e+000,1.89941e-001,1.45996e-001,9.07715e-001,3.47561e+000,1.33537e+001,-1.07927e+001
0.00000e+000,0.00000e+000,1.73340e-001,1.42090e-001,9.02832e-001,2.86585e+000,1.37195e+001,-1.10366e+001
0.00000e+000,0.00000e+000,1.61621e-001,1.43555e-001,9.02344e-001,2.86585e+000,1.48171e+001,-1.12195e+001
0.00000e+000,0.00000e+000,1.38672e-001,1.46484e-001,8.98926e-001,2.86585e+000,1.54268e+001,-1.13415e+001
0.00000e+000,0.00000e+000,1.26953e-001,1.46973e-001,8.94043e-001,2.43902e+000,1.59146e+001,-1.17683e+001
0.00000e+000,0.00000e+000,1.03027e-001,1.44043e-001,8.91113e-001,2.07317e+000,1.60976e+001,-1.20732e+001
0.00000e+000,0.00000e+000,8.88672e-002,1.43066e-001,8.91602e-001,2.37805e+000,1.53049e+001,-1.25610e+001
0.00000e+000,0.00000e+000,7.27539e-002,1.39648e-001,8.89648e-001,1.52439e+000,1.16463e+001,-1.18902e+001
0.00000e+000,0.00000e+000,7.08008e-002,1.40137e-001,8.90625e-001,1.09756e+000,9.39024e+000,-1.14024e+001
0.00000e+000,0.00000e+000,6.29883e-002,1.45020e-001,8.81836e-001,8.53659e-001,3.65854e+000,-1.04878e+001
0.00000e+000,0.00000e+000,6.34766e-002,1.43555e-001,8.81348e-001,3.65854e-001,1.03659e+000,-9.87805e+000
0.00000e+000,0.00000e+000,6.88477e-002,1.35742e-001,8.83789e-001,-6.09756e-002,-2.80488e+000,-9.32927e+000
0.00000e+000,0.00000e+000,7.12891e-002,1.35742e-001,8.91602e-001,1.82927e-001,-3.84146e+000,-9.32927e+000
0.00000e+000,0.00000e+000,6.88477e-002,1.25000e-001,9.14551e-001,-2.43902e-001,-5.73171e+000,-9.26829e+000
0.00000e+000,0.00000e+000,6.73828e-002,1.19141e-001,9.37988e-001,-4.26829e-001,-7.25610e+000,-9.26829e+000
0.00000e+000,0.00000e+000,7.03125e-002,1.22070e-001,9.38965e-001,-6.70732e-001,-9.81707e+000,-9.26829e+000
0.00000e+000,0.00000e+000,6.44531e-002,1.32324e-001,9.39453e-001,-6.70732e-001,-1.14024e+001,-8.65854e+000
0.00000e+000,0.00000e+000,6.29883e-002,1.41113e-001,9.30176e-001,-7.31707e-001,-1.48780e+001,-8.23171e+000
0.00000e+000,0.00000e+000,5.12695e-002,1.48926e-001,9.09668e-001,-7.92683e-001,-1.64024e+001,-8.23171e+000
0.00000e+000,0.00000e+000,4.15039e-002,1.51855e-001,9.06738e-001,-1.15854e+000,-1.96951e+001,-8.47561e+000
0.00000e+000,0.00000e+000,2.09961e-002,1.51367e-001,9.12109e-001,-1.76829e+000,-2.11585e+001,-8.47561e+000
0.00000e+000,0.00000e+000,1.41602e-002,1.49414e-001,9.16992e-001,-2.50000e+000,-2.45122e+001,-7.98780e+000
0.00000e+000,0.00000e+000,-5.37109e-003,1.46484e-001,9.34570e-001,-3.10976e+000,-2.57927e+001,-7.62195e+000
0.00000e+000,0.00000e+000,-8.78906e-003,1.45996e-001,9.43848e-001,-3.10976e+000,-2.90854e+001,-7.01220e+000
0.00000e+000,0.00000e+000,-1.75781e-002,1.36230e-001,9.42383e-001,-2.80488e+000,-3.05488e+001,-6.34146e+000
0.00000e+000,0.00000e+000,-1.61133e-002,1.33301e-001,9.38965e-001,-3.35366e+000,-3.44512e+001,-4.93902e+000
0.00000e+000,0.00000e+000,-5.85938e-003,1.28906e-001,9.20898e-001,-3.23171e+000,-3.76220e+001,-3.84146e+000
0.00000e+000,0.00000e+000,4.88281e-003,1.29395e-001,9.13086e-001,-3.41463e+000,-3.92073e+001,-3.23171e+000
0.00000e+000,0.00000e+000,2.05078e-002,1.29395e-001,8.99414e-001,-4.02439e+000,-4.08537e+001,-2.19512e+000
0.00000e+000,0.00000e+000,3.80859e-002,1.32813e-001,8.98438e-001,-3.90244e+000,-4.08537e+001,-1.46341e+000
0.00000e+000,0.00000e+000,5.95703e-002,1.32324e-001,9.02344e-001,-3.78049e+000,-3.99390e+001,-8.53659e-001
0.00000e+000,0.00000e+000,7.27539e-002,1.33789e-001,9.07715e-001,-3.47561e+000,-3.88415e+001,-2.43902e-001
0.00000e+000,0.00000e+000,9.81445e-002,1.33789e-001,9.18945e-001,-2.86585e+000,-3.65244e+001,4.87805e-001
0.00000e+000,0.00000e+000,1.10352e-001,1.30859e-001,9.25293e-001,-2.07317e+000,-3.54878e+001,9.75610e-001
0.00000e+000,0.00000e+000,1.27930e-001,1.33789e-001,9.32617e-001,-1.64634e+000,-3.43293e+001,1.89024e+000
3.79339e-005,0.00000e+000,1.39648e-001,1.36719e-001,9.40918e-001,-9.75610e-001,-3.38415e+001,2.01220e+000
2.87022e-005,0.00000e+000,1.49414e-001,1.37207e-001,9.45313e-001,-6.70732e-001,-3.42683e+001,2.31707e+000
-1.79599e-005,0.00000e+000,1.49902e-001,1.45996e-001,9.44336e-001,-8.53659e-001,-3.46951e+001,2.50000e+000
-4.53193e-005,0.00000e+000,1.46484e-001,1.44043e-001,9.46289e-001,-1.52439e+000,-3.46951e+001,2.31707e+000
-5.55581e-005,0.00000e+000,1.37695e-001,1.44531e-001,9.49219e-001,-2.07317e+000,-3.46341e+001,2.07317e+000
-2.09812e-005,0.00000e+000,1.32813e-001,1.44531e-001,9.51660e-001,-2.07317e+000,-3.29268e+001,2.13415e+000
3.35698e-005,0.00000e+000,1.26465e-001,1.49414e-001,9.36523e-001,-1.95122e+000,-3.15854e+001,2.01220e+000
5.58938e-005,0.00000e+000,1.21582e-001,1.48926e-001,9.26758e-001,-2.62195e+000,-2.92683e+001,1.70732e+000
1.15312e-004,0.00000e+000,1.15234e-001,1.54785e-001,8.98926e-001,-2.37805e+000,-2.84756e+001,1.82927e+000
1.38308e-004,0.00000e+000,1.12305e-001,1.58203e-001,8.79883e-001,-2.68293e+000,-2.70122e+001,1.95122e+000
8.87923e-005,0.00000e+000,1.11816e-001,1.58691e-001,8.50098e-001,-3.41463e+000,-2.69512e+001,1.40244e+000
1.34279e-006,0.00000e+000,1.10352e-001,1.63086e-001,8.39844e-001,-3.84146e+000,-2.54268e+001,9.75610e-001
-1.21019e-004,0.00000e+000,1.09375e-001,1.66504e-001,8.29102e-001,-4.87805e+000,-2.42683e+001,-6.09756e-002
-1.53246e-004,0.00000e+000,1.11328e-001,1.66992e-001,8.27148e-001,-5.18293e+000,-2.38415e+001,-4.87805e-001
-1.14977e-004,0.00000e+000,1.23047e-001,1.65527e-001,8.27148e-001,-5.60976e+000,-2.30488e+001,-1.15854e+000
-8.30854e-005,0.00000e+000,1.34277e-001,1.73340e-001,8.24707e-001,-5.67073e+000,-2.24390e+001,-1.46341e+000
-6.14328e-005,0.00000e+000,1.63086e-001,1.77734e-001,8.20801e-001,-6.21951e+000,-2.22561e+001,-2.37805e+000
-3.07164e-005,0.00000e+000,1.84570e-001,1.82129e-001,8.18359e-001,-6.03659e+000,-2.18293e+001,-2.62195e+000
-2.43381e-005,0.00000e+000,2.18262e-001,1.85059e-001,8.12012e-001,-6.46341e+000,-2.17683e+001,-3.78049e+000
-6.66362e-005,0.00000e+000,2.33887e-001,1.81152e-001,8.12012e-001,-6.82927e+000,-2.24390e+001,-4.20732e+000
-1.32097e-004,0.00000e+000,2.64160e-001,1.76270e-001,8.12988e-001,-6.64634e+000,-2.26829e+001,-5.48780e+000
-1.27733e-004,0.00000e+000,2.77832e-001,1.64063e-001,8.22266e-001,-6.70732e+000,-2.28659e+001,-6.34146e+000
-4.46479e-005,0.00000e+000,2.79297e-001,1.62598e-001,8.20801e-001,-6.21951e+000,-2.25000e+001,-7.37805e+000
-2.63523e-005,0.00000e+000,2.81738e-001,1.56738e-001,8.18848e-001,-5.97561e+000,-2.26829e+001,-7.98780e+000
-1.93027e-005,0.00000e+000,2.80273e-001,1.58691e-001,8.15918e-001,-6.64634e+000,-2.35976e+001,-8.90244e+000
-7.55322e-006,0.00000e+000,2.72461e-001,1.47461e-001,8.13965e-001,-6.52439e+000,-2.42683e+001,-9.26829e+000
8.39246e-007,0.00000e+000,2.59766e-001,1.50879e-001,8.12500e-001,-7.01220e+000,-2.50610e+001,-9.57317e+000
7.21752e-006,0.00000e+000,2.31934e-001,1.52344e-001,8.21777e-001,-7.13415e+000,-2.64634e+001,-9.87805e+000
-1.09102e-005,0.00000e+000,2.05566e-001,1.52344e-001,8.29590e-001,-7.19512e+000,-2.84146e+001,-1.00000e+001
-1.24208e-005,0.00000e+000,1.52832e-001,1.45508e-001,8.66211e-001,-6.46341e+000,-2.92073e+001,-9.75610e+000
5.03548e-006,0.00000e+000,1.18164e-001,1.41602e-001,8.84277e-001,-6.46341e+000,-3.19512e+001,-1.02439e+001
3.18914e-006,0.00000e+000,6.15234e-002,1.36230e-001,9.25293e-001,-6.34146e+000,-3.29878e+001,-9.93902e+000
-9.73526e-006,0.00000e+000,3.71094e-002,1.26465e-001,9.41406e-001,-5.60976e+000,-3.54268e+001,-9.08537e+000
-8.89601e-006,0.00000e+000,8.30078e-003,1.10352e-001,9.68750e-001,-5.24390e+000,-3.84146e+001,-8.17073e+000
-7.21752e-006,-1.86313e-005,-4.88281e-004,1.02539e-001,9.81445e-001,-5.12195e+000,-4.00610e+001,-7.43902e+000
-4.53193e-006,-1.62814e-005,1.95313e-003,9.61914e-002,9.81934e-001,-4.14634e+000,-4.25000e+001,-6.40244e+000
2.51774e-006,-2.75273e-005,7.32422e-003,8.98438e-002,9.78516e-001,-4.20732e+000,-4.37805e+001,-5.97561e+000
9.90310e-006,-1.00710e-005,3.56445e-002,8.20313e-002,9.61426e-001,-3.65854e+000,-4.50610e+001,-4.45122e+000
1.15816e-005,3.07164e-005,5.61523e-002,7.95898e-002,9.56543e-001,-3.23171e+000,-4.52439e+001,-3.90244e+000
1.05745e-005,3.87732e-005,9.86328e-002,8.39844e-002,9.42871e-001,-3.10976e+000,-4.45732e+001,-3.47561e+000
1.25887e-005,3.60876e-005,1.40137e-001,9.17969e-002,9.37500e-001,-2.86585e+000,-4.34756e+001,-3.10976e+000
8.72816e-006,-2.51774e-006,1.63574e-001,9.17969e-002,9.37012e-001,-2.62195e+000,-4.09146e+001,-2.74390e+000
-2.68559e-006,-3.00450e-005,1.95313e-001,1.04492e-001,9.35059e-001,-2.31707e+000,-3.90854e+001,-2.50000e+000
-1.51064e-006,-3.81018e-005,2.11426e-001,1.09863e-001,9.35059e-001,-1.21951e+000,-3.53049e+001,-2.25610e+000
4.53193e-006,-3.37377e-005,2.42676e-001,1.18652e-001,9.38965e-001,-9.14634e-001,-3.28049e+001,-2.19512e+000
8.39246e-007,5.03548e-006,2.54395e-001,1.22070e-001,9.35547e-001,-3.04878e-001,-2.82317e+001,-2.19512e+000
-7.72107e-006,1.57778e-005,2.65137e-001,1.25977e-001,9.32617e-001,-1.21951e-001,-2.60366e+001,-2.19512e+000
-6.54612e-006,-1.02388e-005,2.70020e-001,1.23047e-001,9.29199e-001,5.48781e-001,-2.15854e+001,-1.76829e+000
8.39246e-007,-6.59647e-005,2.66113e-001,1.21094e-001,9.24805e-001,9.14634e-001,-1.94512e+001,-1.82927e+000
1.25887e-005,-1.09773e-004,2.64648e-001,1.22559e-001,9.23828e-001,2.25610e+000,-1.49390e+001,-7.92683e-001
2.93736e-005,-9.29885e-005,2.48535e-001,1.24023e-001,9.20898e-001,2.68293e+000,-1.28049e+001,-6.09756e-001
1.35958e-005,-3.10521e-005,2.48047e-001,1.22070e-001,9.21875e-001,3.65854e+000,-8.71951e+000,-4.26829e-001
-1.15816e-005,2.04776e-005,2.31445e-001,1.34277e-001,9.26270e-001,3.90244e+000,-6.89024e+000,-6.09756e-002
-1.39315e-005,2.46738e-005,2.23633e-001,1.34277e-001,9.28223e-001,4.57317e+000,-4.45122e+000,6.09756e-002
-1.86313e-005,1.56100e-005,2.11426e-001,1.38672e-001,9.29688e-001,5.06098e+000,-2.68293e+000,0.00000e+000
-2.21561e-005,2.16526e-005,2.05566e-001,1.40137e-001,9.28711e-001,5.12195e+000,-1.64634e+000,6.09756e-002
-1.32601e-005,2.53452e-005,1.92871e-001,1.40625e-001,9.23340e-001,4.69512e+000,-1.03659e+000,-5.48781e-001
9.39956e-006,4.88441e-005,1.86523e-001,1.46973e-001,9.18457e-001,4.87805e+000,-1.21951e+000,-6.70732e-001
2.92058e-005,6.10971e-005,1.75781e-001,1.48438e-001,9.13574e-001,4.08537e+000,-2.68293e+000,-1.28049e+000
3.47448e-005,3.49126e-005,1.73828e-001,1.48438e-001,9.15039e-001,3.65854e+000,-3.78049e+000,-1.58537e+000
5.28725e-005,-2.43381e-005,1.74316e-001,1.51367e-001,9.07715e-001,2.13415e+000,-6.64634e+000,-2.01220e+000
4.44800e-005,-7.26787e-005,1.78711e-001,1.58203e-001,9.10645e-001,1.89024e+000,-7.31707e+000,-2.56098e+000
-3.79339e-005,-4.11231e-005,1.78223e-001,1.57227e-001,9.13086e-001,1.58537e+000,-8.10976e+000,-3.23171e+000
-8.47639e-005,2.50095e-005,1.85547e-001,1.49902e-001,9.01855e-001,1.28049e+000,-8.23171e+000,-3.41463e+000
-9.58419e-005,4.88441e-005,1.92383e-001,1.51855e-001,8.90625e-001,9.14634e-001,-7.01220e+000,-4.20732e+000
-1.12291e-004,3.03807e-005,2.13379e-001,1.54297e-001,8.50098e-001,3.65854e-001,-6.58537e+000,-4.39024e+000
-9.18135e-005,2.18204e-005,2.21191e-001,1.55273e-001,8.26660e-001,-6.09756e-002,-4.45122e+000,-5.36585e+000
-4.54871e-005,2.06455e-005,2.48047e-001,1.58203e-001,7.85156e-001,-9.14634e-001,-3.65854e+000,-5.30488e+000
-3.97803e-005,-1.47707e-005,2.61719e-001,1.60156e-001,7.64160e-001,-2.74390e+000,-3.71951e+000,-6.21951e+000
-5.13619e-005,-2.68559e-005,2.78809e-001,1.63086e-001,7.36328e-001,-3.10976e+000,-3.84146e+000,-6.46341e+000
-4.34730e-005,-3.03807e-005,2.88574e-001,1.66016e-001,7.35840e-001,-4.93902e+000,-5.73171e+000,-7.37805e+000
-2.76951e-005,-5.28725e-005,2.91504e-001,1.69434e-001,7.47559e-001,-5.54878e+000,-6.40244e+000,-7.86585e+000
-1.02388e-005,-5.58938e-005,2.89551e-001,1.65039e-001,7.60254e-001,-6.82927e+000,-8.17073e+000,-9.02439e+000
1.69528e-005,-6.12650e-005,2.77832e-001,1.49902e-001,7.96875e-001,-6.89024e+000,-8.90244e+000,-9.39024e+000
2.09812e-005,-4.71656e-005,2.67090e-001,1.35254e-001,8.12012e-001,-6.34146e+000,-1.00610e+001,-9.75610e+000
1.27565e-005,-7.55322e-006,2.47559e-001,1.17188e-001,8.45215e-001,-4.81707e+000,-1.03049e+001,-9.63415e+000
2.73594e-005,8.39246e-007,2.40723e-001,1.03027e-001,8.54980e-001,-4.08537e+000,-1.01220e+001,-9.14634e+000
2.53452e-005,-7.88891e-006,2.21680e-001,8.10547e-002,8.84277e-001,-2.13415e+000,-9.26829e+000,-8.47561e+000
-8.22461e-006,-1.79599e-005,2.10938e-001,7.12891e-002,9.01367e-001,-1.46341e+000,-9.14634e+000,-7.80488e+000
-3.91089e-005,-7.55322e-006,1.86035e-001,5.90820e-002,9.20898e-001,-9.75610e-001,-8.90244e+000,-7.31707e+000
-5.11940e-005,1.46029e-005,1.73340e-001,5.61523e-002,9.26270e-001,-3.65854e-001,-9.32927e+000,-7.13415e+000
-5.72366e-005,2.46738e-005,1.52832e-001,5.22461e-002,9.35547e-001,1.03659e+000,-9.75610e+000,-6.64634e+000
-4.04517e-005,2.81987e-005,1.35742e-001,4.93164e-002,9.38965e-001,1.70732e+000,-1.03659e+001,-6.15854e+000
5.37118e-006,1.79599e-005,1.24023e-001,5.22461e-002,9.42871e-001,3.17073e+000,-1.16463e+001,-5.67073e+000
3.18914e-006,7.88891e-006,1.04492e-001,6.73828e-002,9.75098e-001,3.10976e+000,-1.31707e+001,-5.42683e+000
-8.56031e-006,7.55322e-006,8.78906e-002,7.66602e-002,9.91211e-001,2.74390e+000,-1.57317e+001,-5.00000e+000
2.03098e-005,1.46029e-005,5.07813e-002,9.61914e-002,1.02539e+000,2.19512e+000,-1.75610e+001,-4.57317e+000
2.92058e-005,1.42672e-005,3.22266e-002,1.01074e-001,1.03613e+000,1.40244e+000,-1.99390e+001,-4.32927e+000
-9.90310e-006,2.46738e-005,-1.17188e-002,1.01563e-001,1.03760e+000,1.40244e+000,-2.05488e+001,-3.84146e+000
-1.89670e-005,3.18914e-005,-2.29492e-002,1.03027e-001,1.02881e+000,2.68293e+000,-1.96951e+001,-2.25610e+000
-1.96384e-005,2.40024e-005,-1.56250e-002,1.01074e-001,1.00000e+000,3.10976e+000,-1.86585e+001,-1.28049e+000
2.18204e-006,1.05745e-005,-2.92969e-003,1.02051e-001,9.76563e-001,3.23171e+000,-1.68293e+001,8.53659e-001
2.93736e-005,4.86763e-006,4.58984e-002,1.09375e-001,9.09180e-001,3.10976e+000,-1.62195e+001,1.64634e+000
-5.03548e-007,3.02129e-006,7.51953e-002,1.12793e-001,8.79883e-001,1.82927e+000,-1.59756e+001,3.29268e+000
-3.91089e-005,-1.35958e-005,1.56738e-001,1.19141e-001,8.38867e-001,1.15854e+000,-1.58537e+001,3.71951e+000
-5.06905e-005,-1.35958e-005,1.94824e-001,1.19141e-001,8.22266e-001,7.31707e-001,-1.46951e+001,4.08537e+000
-5.70687e-005,-5.87472e-006,2.63672e-001,1.25000e-001,8.15430e-001,5.48781e-001,-1.23171e+001,3.78049e+000
-5.20333e-005,-1.84634e-006,2.93457e-001,1.30371e-001,8.18848e-001,1.21951e-001,-1.14634e+001,3.65854e+000
-3.17235e-005,-4.19623e-006,3.27148e-001,1.44531e-001,8.52051e-001,-6.70732e-001,-1.14634e+001,2.74390e+000
-7.55322e-006,-4.86763e-006,3.28125e-001,1.43555e-001,8.64258e-001,-1.03659e+000,-1.20732e+001,2.13415e+000
3.18914e-006,-1.42672e-005,3.07617e-001,1.53320e-001,9.00391e-001,-1.58537e+000,-1.51829e+001,5.48781e-001
-1.47707e-005,-1.56100e-005,2.88574e-001,1.54785e-001,9.12598e-001,-1.76829e+000,-1.68293e+001,-6.09756e-002
-5.35439e-005,-1.42672e-005,2.48047e-001,1.45020e-001,9.27734e-001,-2.01220e+000,-1.99390e+001,-1.09756e+000
-8.29175e-005,-4.69978e-006,2.04590e-001,1.39160e-001,9.27246e-001,-2.31707e+000,-2.13415e+001,-1.34146e+000
-4.64942e-005,1.46029e-005,1.83105e-001,1.37207e-001,9.20410e-001,-2.31707e+000,-2.18293e+001,-1.58537e+000
-1.46029e-005,1.35958e-005,1.66504e-001,1.26953e-001,9.09180e-001,-2.37805e+000,-2.19512e+001,-1.89024e+000
3.35698e-007,9.06386e-006,1.60156e-001,1.26953e-001,9.01367e-001,-2.62195e+000,-2.12805e+001,-1.34146e+000
3.18914e-006,9.73526e-006,1.72852e-001,1.23535e-001,8.74512e-001,-2.62195e+000,-2.14634e+001,-9.75610e-001
-8.22461e-006,9.06386e-006,1.86523e-001,1.23047e-001,8.61816e-001,-3.10976e+000,-2.15244e+001,-6.70732e-001
5.20333e-006,1.04067e-005,2.08496e-001,1.18652e-001,8.33984e-001,-2.98780e+000,-2.11585e+001,-8.53659e-001
1.39315e-005,-4.86763e-006,2.22168e-001,1.19141e-001,8.21777e-001,-3.23171e+000,-2.13415e+001,-6.09756e-001
1.09102e-005,-5.03548e-006,2.52441e-001,1.19629e-001,7.95898e-001,-3.04878e+000,-2.10366e+001,-7.31707e-001
-8.39246e-006,-2.50095e-005,2.66113e-001,1.18652e-001,7.86133e-001,-3.65854e+000,-1.96341e+001,-9.75610e-001
-7.88891e-006,-2.09812e-005,2.83691e-001,1.22070e-001,7.88086e-001,-3.96341e+000,-1.85366e+001,-1.21951e+000
-1.79599e-005,7.88891e-006,2.86621e-001,1.18164e-001,7.94434e-001,-4.39024e+000,-1.53049e+001,-1.89024e+000
-3.60876e-005,1.89670e-005,2.80762e-001,1.16699e-001,8.06152e-001,-4.39024e+000,-1.33537e+001,-2.43902e+000
-3.70947e-005,2.70237e-005,2.76367e-001,1.16211e-001,8.12988e-001,-3.59756e+000,-9.20732e+000,-3.17073e+000
-1.25887e-005,1.96384e-005,2.71484e-001,1.08398e-001,8.27637e-001,-1.95122e+000,-4.81707e+000,-2.92683e+000
-1.51064e-005,5.03548e-006,2.73926e-001,1.04492e-001,8.34961e-001,-7.92683e-001,-3.10976e+000,-2.92683e+000
2.51774e-006,-2.36667e-005,2.72461e-001,9.96094e-002,8.55469e-001,7.31707e-001,-3.65854e-001,-3.04878e+000
3.52483e-005,-5.45510e-005,2.70020e-001,9.52148e-002,8.76465e-001,1.34146e+000,2.43902e-001,-3.04878e+000
3.23949e-005,-7.26787e-005,2.68066e-001,9.42383e-002,9.17480e-001,2.37805e+000,1.46341e+000,-3.41463e+000
-1.37636e-005,-7.53643e-005,2.62695e-001,9.86328e-002,9.44824e-001,2.68293e+000,1.82927e+000,-3.59756e+000
-4.75013e-005,-6.36149e-005,2.39258e-001,9.66797e-002,9.89258e-001,2.98780e+000,2.13415e+000,-4.39024e+000
-3.40734e-005,-5.57259e-005,2.09473e-001,9.08203e-002,1.01025e+000,3.71951e+000,2.92683e+000,-4.93902e+000
-1.94705e-005,-3.52483e-005,1.92871e-001,8.59375e-002,1.01172e+000,4.87805e+000,5.18293e+000,-5.67073e+000
-8.89601e-006,-1.22530e-005,1.74316e-001,7.51953e-002,9.93164e-001,6.28049e+000,7.56098e+000,-5.85366e+000
-1.25887e-005,1.25887e-005,1.69922e-001,7.47070e-002,9.80469e-001,8.17073e+000,1.15244e+001,-4.93902e+000
-2.09812e-005,2.58488e-005,1.76758e-001,7.27539e-002,9.52637e-001,9.02439e+000,1.33537e+001,-4.87805e+000
-1.86313e-005,1.64492e-005,1.83594e-001,7.32422e-002,9.39941e-001,1.00000e+001,1.62195e+001,-4.57317e+000
-1.02388e-005,4.69978e-006,2.01172e-001,7.86133e-002,9.28223e-001,1.00000e+001,1.65854e+001,-4.26829e+000
1.76242e-005,1.56100e-005,2.06543e-001,8.54492e-002,9.18457e-001,9.45122e+000,1.64024e+001,-4.08537e+000
2.65202e-005,2.46738e-005,2.16797e-001,9.86328e-002,9.07227e-001,9.69512e+000,1.62805e+001,-4.26829e+000
5.87472e-006,3.60876e-005,2.20703e-001,1.02051e-001,8.96973e-001,9.26829e+000,1.61585e+001,-4.39024e+000
9.90310e-006,4.07874e-005,2.15332e-001,1.16699e-001,8.80371e-001,8.96342e+000,1.62805e+001,-4.93902e+000
1.25887e-005,2.19883e-005,2.14355e-001,1.20117e-001,8.68652e-001,9.14634e+000,1.71341e+001,-5.00000e+000
2.19883e-005,-4.53193e-006,1.97266e-001,1.33789e-001,8.48633e-001,8.96342e+000,1.70732e+001,-5.06098e+000
2.13169e-005,-1.19173e-005,1.84570e-001,1.34277e-001,8.44238e-001,8.47561e+000,1.59146e+001,-5.48780e+000
4.02838e-006,3.86053e-006,1.58691e-001,1.43066e-001,8.44238e-001,7.74390e+000,1.30488e+001,-5.60976e+000
3.52483e-006,3.20592e-005,1.47949e-001,1.46973e-001,8.45703e-001,7.31707e+000,1.04878e+001,-5.54878e+000
-3.02129e-005,3.49126e-005,1.17676e-001,1.52344e-001,8.57422e-001,6.15854e+000,5.36585e+000,-5.67073e+000
-8.77852e-005,3.60876e-005,1.09863e-001,1.55762e-001,8.62793e-001,5.36585e+000,2.74390e+000,-5.48780e+000
-8.09033e-005,2.26596e-005,8.98438e-002,1.60645e-001,8.68652e-001,2.68293e+000,-2.98780e+000,-5.73171e+000
-4.17945e-005,-8.56031e-006,8.25195e-002,1.63086e-001,8.67676e-001,1.70732e+000,-5.60976e+000,-5.36585e+000
-3.50805e-005,-9.56741e-006,7.32422e-002,1.67969e-001,8.58887e-001,-4.87805e-001,-9.81707e+000,-4.75610e+000
-3.27306e-005,-5.87472e-006,8.20313e-002,1.67480e-001,8.48633e-001,-1.40244e+000,-1.16463e+001,-4.45122e+000
-2.90379e-005,-1.82956e-005,8.54492e-002,1.66016e-001,8.46680e-001,-2.98780e+000,-1.53049e+001,-4.32927e+000
-2.76951e-005,-2.50095e-005,9.47266e-002,1.61133e-001,8.50586e-001,-3.47561e+000,-1.71951e+001,-4.26829e+000
-1.69528e-005,-2.63523e-005,1.03516e-001,1.54785e-001,8.58398e-001,-5.18293e+000,-2.15854e+001,-3.78049e+000
-1.39315e-005,-3.92767e-005,1.20117e-001,1.46484e-001,8.70117e-001,-5.60976e+000,-2.32927e+001,-3.71951e+000
-3.57519e-005,-3.97803e-005,1.28418e-001,1.40137e-001,8.79883e-001,-6.34146e+000,-2.68293e+001,-2.98780e+000
-4.85084e-005,-1.99741e-005,1.57715e-001,1.27441e-001,9.06250e-001,-6.58537e+000,-2.83537e+001,-2.86585e+000
-2.97093e-005,1.72885e-005,1.65039e-001,1.22559e-001,9.20410e-001,-6.58537e+000,-2.99390e+001,-2.13415e+000
-1.59457e-005,5.62295e-005,1.93359e-001,1.16211e-001,9.51660e-001,-6.76829e+000,-3.04268e+001,-1.89024e+000
-1.39315e-005,7.70428e-005,2.06055e-001,1.08398e-001,9.59961e-001,-6.46341e+000,-3.00610e+001,-1.52439e+000
-1.09102e-005,8.00641e-005,2.29004e-001,1.01074e-001,9.65332e-001,-6.09756e+000,-2.89024e+001,-1.52439e+000
-5.20333e-006,1.27062e-004,2.42676e-001,9.81445e-002,9.60449e-001,-5.36585e+000,-2.68293e+001,-2.01220e+000
-4.69978e-006,1.83795e-004,2.60742e-001,9.13086e-002,9.26270e-001,-4.81707e+000,-2.53049e+001,-1.89024e+000
-7.21752e-006,1.43847e-004,2.70508e-001,8.98438e-002,9.02344e-001,-3.65854e+000,-2.14634e+001,-1.89024e+000
-1.84634e-006,8.64424e-005,2.98340e-001,8.88672e-002,8.60840e-001,-2.07317e+000,-1.85976e+001,-1.64634e+000
1.69528e-005,4.12909e-005,3.17383e-001,9.27734e-002,8.47168e-001,-1.82927e+000,-1.76220e+001,-1.15854e+000
2.26596e-005,-7.40215e-005,3.35449e-001,1.01563e-001,8.38379e-001,-2.01220e+000,-1.47561e+001,-1.15854e+000
2.19883e-005,-1.88159e-004,3.39844e-001,1.06934e-001,8.43750e-001,-2.19512e+000,-1.36585e+001,-1.28049e+000
9.90310e-006,-2.66880e-004,3.23730e-001,1.12305e-001,8.71582e-001,-2.31707e+000,-1.06098e+001,-1.58537e+000
-8.72816e-006,-3.23445e-004,3.08105e-001,1.16211e-001,8.89648e-001,-2.01220e+000,-8.71951e+000,-1.95122e+000
-2.06455e-005,-3.15053e-004,2.71973e-001,1.12305e-001,9.20898e-001,-6.70732e-001,-5.12195e+000,-2.37805e+000
-3.55840e-005,-2.39521e-004,2.31934e-001,1.06445e-001,9.43848e-001,2.43902e-001,-3.59756e+000,-2.13415e+000
-6.19364e-005,-8.29175e-005,2.17773e-001,9.96094e-002,9.46777e-001,1.89024e+000,-1.46341e+000,-2.43902e+000
-4.81727e-005,4.75013e-005,1.87988e-001,9.47266e-002,9.55566e-001,2.13415e+000,-9.75610e-001,-2.43902e+000
-3.74304e-005,4.39765e-005,1.80176e-001,9.37500e-002,9.60449e-001,3.23171e+000,-9.75610e-001,-2.43902e+000
-3.03807e-005,4.86763e-006,1.71387e-001,9.13086e-002,9.63867e-001,3.35366e+000,-7.92683e-001,-2.43902e+000
-1.22530e-005,-2.56809e-005,1.73828e-001,8.78906e-002,9.58984e-001,3.10976e+000,-1.70732e+000,-1.76829e+000
2.13169e-005,-5.92508e-005,1.76270e-001,8.05664e-002,9.42871e-001,3.23171e+000,-2.01220e+000,-1.95122e+000
2.70237e-005,-9.31563e-005,1.77246e-001,8.10547e-002,9.29688e-001,3.78049e+000,-2.92683e+000,-1.40244e+000
1.76242e-005,-7.06645e-005,1.92871e-001,7.56836e-002,9.07227e-001,3.71951e+000,-3.90244e+000,-1.34146e+000
8.22461e-006,-2.26596e-005,2.00195e-001,7.71484e-002,8.95020e-001,4.20732e+000,-4.45122e+000,-1.21951e+000
-1.17494e-006,1.22530e-005,2.03125e-001,8.69141e-002,8.75488e-001,3.59756e+000,-5.12195e+000,-1.21951e+000
-6.54612e-006,3.52483e-005,2.05566e-001,9.13086e-002,8.73535e-001,3.59756e+000,-6.28049e+000,-6.70732e-001
-9.56741e-006,4.31373e-005,1.97754e-001,1.04980e-001,8.74512e-001,3.96341e+000,-6.76829e+000,-7.92683e-001
5.03548e-006,5.25368e-005,1.97754e-001,1.10352e-001,8.78906e-001,2.98780e+000,-7.50000e+000,-5.48781e-001
1.67849e-006,4.41444e-005,1.94336e-001,1.24512e-001,8.90137e-001,2.07317e+000,-7.92683e+000,-6.09756e-001
-1.49386e-005,2.46738e-005,1.92871e-001,1.23535e-001,8.91602e-001,1.70732e+000,-7.98780e+000,-9.14634e-001
-1.89670e-005,3.59197e-005,1.88965e-001,1.24023e-001,8.95996e-001,1.82927e+000,-8.96342e+000,-4.26829e-001
-3.20592e-005,9.24849e-005,1.86523e-001,1.26465e-001,8.92578e-001,1.28049e+000,-9.63415e+000,-7.92683e-001
-3.77661e-005,1.00206e-004,1.82617e-001,1.30371e-001,8.88672e-001,5.48781e-001,-1.15854e+001,-1.09756e+000
-4.26337e-005,5.62295e-005,1.82129e-001,1.34277e-001,8.83301e-001,-3.65854e-001,-1.27439e+001,-1.09756e+000
-5.32082e-005,4.53193e-005,1.83105e-001,1.37207e-001,8.69141e-001,-1.58537e+000,-1.54268e+001,-1.46341e+000
-5.01869e-005,4.41444e-005,1.84570e-001,1.43066e-001,8.55469e-001,-2.43902e+000,-1.68293e+001,-1.82927e+000
-2.87022e-005,1.99741e-005,1.80176e-001,1.45020e-001,8.52539e-001,-3.35366e+000,-2.02439e+001,-1.95122e+000
-2.34989e-005,3.00450e-005,1.77734e-001,1.48926e-001,8.49609e-001,-3.96341e+000,-2.20732e+001,-2.19512e+000
-3.03807e-005,2.11490e-005,1.82617e-001,1.49902e-001,8.50098e-001,-5.54878e+000,-2.65244e+001,-2.56098e+000
-4.31373e-005,3.02129e-006,1.77734e-001,1.51855e-001,8.54980e-001,-6.46341e+000,-2.84146e+001,-2.62195e+000
-2.93736e-005,3.00450e-005,1.76270e-001,1.46484e-001,8.64258e-001,-7.50000e+000,-3.16463e+001,-2.62195e+000
1.39315e-005,5.22011e-005,1.90430e-001,1.42578e-001,8.66699e-001,-7.37805e+000,-3.31707e+001,-2.56098e+000
3.94446e-005,5.25368e-005,1.98242e-001,1.38184e-001,8.63770e-001,-7.98780e+000,-3.49390e+001,-2.31707e+000
2.66880e-005,3.70947e-005,2.19727e-001,1.28418e-001,8.58887e-001,-7.74390e+000,-3.49390e+001,-1.70732e+000
-6.88182e-006,2.88701e-005,2.36816e-001,1.25488e-001,8.55469e-001,-8.47561e+000,-3.53659e+001,-1.15854e+000
-2.66880e-005,4.24659e-005,2.69531e-001,1.14746e-001,8.59863e-001,-8.53659e+000,-3.50000e+001,-1.15854e+000
-2.50095e-005,7.06645e-005,2.77832e-001,1.09863e-001,8.63770e-001,-9.08537e+000,-3.39024e+001,-1.82927e+000
-2.56809e-005,5.80758e-005,2.96875e-001,1.01563e-001,8.78906e-001,-8.96342e+000,-3.31707e+001,-2.37805e+000
-2.63523e-005,2.09812e-005,2.99805e-001,9.61914e-002,8.84277e-001,-8.29268e+000,-3.10366e+001,-3.35366e+000
-1.79599e-005,-5.37118e-006,3.08594e-001,8.59375e-002,8.90625e-001,-7.25610e+000,-2.87195e+001,-4.08537e+000
-7.38537e-006,-4.02838e-005,3.12500e-001,7.91016e-002,8.94043e-001,-6.70732e+000,-2.70732e+001,-4.20732e+000
7.55322e-006,-4.21302e-005,3.17383e-001,6.83594e-002,9.06250e-001,-5.48780e+000,-2.46951e+001,-4.57317e+000
7.04967e-006,-6.37827e-006,3.19336e-001,6.73828e-002,9.16016e-001,-4.51220e+000,-2.29268e+001,-4.87805e+000
-4.19623e-006,-8.39246e-007,3.15430e-001,6.25000e-002,9.39453e-001,-3.17073e+000,-2.00610e+001,-4.87805e+000
-1.02388e-005,-2.13169e-005,3.11523e-001,6.05469e-002,9.52148e-001,-2.19512e+000,-1.83537e+001,-5.00000e+000
-2.11490e-005,-2.80308e-005,3.03711e-001,5.76172e-002,9.73145e-001,-1.09756e+000,-1.41463e+001,-5.06098e+000
-2.83665e-005,-2.19883e-005,2.89551e-001,5.71289e-002,9.83398e-001,-2.43902e-001,-1.14634e+001,-5.12195e+000
-2.23239e-005,-5.53903e-006,2.81250e-001,5.22461e-002,9.82422e-001,1.70732e+000,-6.89024e+000,-5.06098e+000
-1.69528e-005,1.99741e-005,2.79785e-001,4.73633e-002,9.61914e-001,3.29268e+000,-4.39024e+000,-4.93902e+000
-1.81277e-005,3.37377e-005,2.79297e-001,4.68750e-002,9.52148e-001,5.18293e+000,-6.09756e-001,-4.69512e+000
-1.77920e-005,2.11490e-005,2.79785e-001,5.41992e-002,9.30176e-001,5.97561e+000,9.14634e-001,-4.32927e+000
-1.59457e-005,1.81277e-005,2.78320e-001,5.56641e-002,9.21387e-001,7.62195e+000,3.23171e+000,-4.08537e+000
-1.05745e-005,3.91089e-005,2.77344e-001,7.17773e-002,9.15039e-001,7.50000e+000,3.47561e+000,-3.90244e+000
-1.49386e-005,7.62036e-005,2.74902e-001,7.91016e-002,9.15527e-001,8.10976e+000,4.57317e+000,-2.92683e+000
-1.86313e-005,9.55062e-005,2.54883e-001,9.37500e-002,9.11133e-001,7.68293e+000,4.75610e+000,-3.10976e+000
-1.59457e-005,6.02579e-005,2.41699e-001,9.96094e-002,9.16016e-001,7.56098e+000,5.00000e+000,-2.62195e+000
-1.02388e-005,3.52483e-005,2.20215e-001,1.08398e-001,9.17480e-001,7.86585e+000,5.18293e+000,-2.62195e+000
-7.04967e-006,2.41703e-005,2.15820e-001,1.09863e-001,9.20410e-001,8.04878e+000,5.18293e+000,-2.31707e+000
-5.03548e-007,-7.55322e-006,2.02148e-001,1.10352e-001,9.25781e-001,8.47561e+000,4.02439e+000,-2.19512e+000
1.25887e-005,-8.87923e-005,1.99219e-001,1.14258e-001,9.28223e-001,8.53659e+000,3.17073e+000,-2.01220e+000
1.84634e-005,-1.47204e-004,1.91895e-001,1.15723e-001,9.33105e-001,8.90244e+000,1.03659e+000,-2.07317e+000
1.46029e-005,-1.92187e-004,1.88477e-001,1.20117e-001,9.35059e-001,8.71951e+000,-6.09756e-001,-1.64634e+000
2.28275e-005,-1.90173e-004,1.91406e-001,1.24512e-001,9.27734e-001,8.47561e+000,-2.74390e+000,-1.76829e+000
2.83665e-005,-1.76745e-004,1.89453e-001,1.25977e-001,9.20410e-001,7.86585e+000,-4.02439e+000,-1.82927e+000
2.92058e-005,-1.00038e-004,1.93359e-001,1.27930e-001,8.98926e-001,7.80488e+000,-4.93902e+000,-1.28049e+000
3.05486e-005,-3.00450e-005,1.94824e-001,1.32324e-001,8.88672e-001,7.19512e+000,-5.48780e+000,-1.09756e+000
-5.03548e-007,-4.48157e-005,2.08008e-001,1.33301e-001,8.72559e-001,6.95122e+000,-5.67073e+000,-6.09756e-001
-4.75013e-005,-6.69719e-005,2.20703e-001,1.33301e-001,8.64258e-001,6.76829e+000,-5.30488e+000,-5.48781e-001
-8.54353e-005,-5.32082e-005,2.27539e-001,1.36719e-001,8.69141e-001,6.46341e+000,-4.87805e+000,-6.09756e-001
-9.76883e-005,-2.43381e-005,2.33887e-001,1.38672e-001,8.77930e-001,6.52439e+000,-4.69512e+000,-7.92683e-001
-9.75204e-005,-1.51064e-006,2.33398e-001,1.37207e-001,8.78418e-001,6.28049e+000,-5.42683e+000,-6.70732e-001
-6.29435e-005,-6.37827e-006,2.32910e-001,1.41113e-001,8.80859e-001,6.15854e+000,-6.34146e+000,-7.31707e-001
-3.30663e-005,-5.87472e-006,2.25586e-001,1.43066e-001,8.80371e-001,5.12195e+000,-8.59756e+000,-1.15854e+000
-3.30663e-005,8.39246e-007,2.16309e-001,1.43555e-001,8.78906e-001,5.42683e+000,-9.75610e+000,-9.14634e-001
-3.13878e-005,-1.12459e-005,2.13867e-001,1.42090e-001,8.76953e-001,5.06098e+000,-1.17683e+001,-5.48781e-001
-2.65202e-005,5.03548e-007,2.16309e-001,1.36719e-001,8.82813e-001,5.06098e+000,-1.21951e+001,-4.26829e-001
-1.89670e-005,2.87022e-005,2.21191e-001,1.40625e-001,8.89160e-001,5.00000e+000,-1.17073e+001,-7.31707e-001
-1.67849e-005,4.86763e-005,2.25586e-001,1.28418e-001,8.91602e-001,4.81707e+000,-1.04268e+001,-1.09756e+000
-1.35958e-005,4.91798e-005,2.38281e-001,1.26953e-001,8.84766e-001,5.48780e+000,-8.78049e+000,-1.76829e+000
-1.35958e-005,2.87022e-005,2.63672e-001,1.12793e-001,8.54492e-001,6.46341e+000,-7.13415e+000,-2.19512e+000
-1.32601e-005,7.88891e-006,2.83203e-001,1.07422e-001,8.38379e-001,6.76829e+000,-6.70732e+000,-2.19512e+000
-9.90310e-006,9.73526e-006,3.19824e-001,1.01563e-001,8.11523e-001,8.04878e+000,-5.24390e+000,-2.13415e+000
-9.56741e-006,3.52483e-006,3.36914e-001,1.04492e-001,7.99316e-001,8.29268e+000,-4.69512e+000,-2.31707e+000
-1.19173e-005,3.86053e-006,3.72070e-001,1.09375e-001,7.83691e-001,7.62195e+000,-2.68293e+000,-2.07317e+000
-9.90310e-006,1.74563e-005,3.78906e-001,1.15234e-001,7.75879e-001,6.15854e+000,-1.34146e+000,-2.13415e+000
-2.18204e-006,1.86313e-005,3.69629e-001,1.21094e-001,7.53906e-001,3.96341e+000,2.56098e+000,-2.80488e+000
1.00710e-006,1.67849e-005,3.54492e-001,1.25000e-001,7.41211e-001,3.90244e+000,4.20732e+000,-3.10976e+000
5.70687e-006,1.84634e-005,3.17383e-001,1.26953e-001,7.10449e-001,3.71951e+000,7.31707e+000,-3.41463e+000
-9.73526e-006,2.98772e-005,2.65625e-001,1.23047e-001,7.04590e-001,4.02439e+000,8.47561e+000,-3.41463e+000
-1.09102e-005,1.82956e-005,2.39746e-001,1.21582e-001,7.14355e-001,3.47561e+000,8.90244e+000,-3.71951e+000
7.72107e-006,-1.82956e-005,1.81152e-001,1.25977e-001,7.59766e-001,3.17073e+000,9.45122e+000,-3.53659e+000
1.79599e-005,-1.86313e-005,1.55273e-001,1.27930e-001,7.88574e-001,1.15854e+000,8.96342e+000,-3.53659e+000
4.66621e-005,8.22461e-006,1.01074e-001,1.21094e-001,8.46680e-001,-1.82927e-001,8.04878e+000,-3.59756e+000
4.61585e-005,3.54162e-005,7.42188e-002,1.17676e-001,8.70605e-001,-2.43902e-001,5.30488e+000,-2.62195e+000
-1.24208e-005,4.85084e-005,3.17383e-002,9.42383e-002,9.10645e-001,1.21951e-001,3.29268e+000,-1.82927e+000
5.03548e-007,7.98962e-005,1.95313e-002,8.30078e-002,9.22852e-001,2.25610e+000,-2.19512e+000,4.26829e-001
-1.52743e-005,7.68750e-005,3.90625e-003,6.15234e-002,9.58496e-001,3.17073e+000,-4.08537e+000,1.46341e+000
-6.66362e-005,6.22721e-005,3.90625e-003,5.76172e-002,9.69727e-001,4.45122e+000,-7.80488e+000,4.26829e+000
-6.07614e-005,5.48867e-005,1.80664e-002,4.93164e-002,9.86816e-001,4.08537e+000,-9.14634e+000,5.00000e+000
-5.58938e-005,3.20592e-005,3.32031e-002,5.02930e-002,9.89258e-001,5.06098e+000,-1.00610e+001,7.07317e+000
-5.03548e-005,1.79599e-005,7.47070e-002,5.07813e-002,9.80469e-001,5.30488e+000,-9.20732e+000,8.78049e+000
-2.29953e-005,-3.35698e-006,9.32617e-002,5.32227e-002,9.65332e-001,5.67073e+000,-8.41463e+000,9.51220e+000
-2.95415e-005,-1.82956e-005,1.36719e-001,7.42188e-002,9.22363e-001,6.15854e+000,-6.09756e+000,1.05488e+001
-5.55581e-005,-3.60876e-005,1.58203e-001,8.39844e-002,9.02344e-001,5.91463e+000,-4.81707e+000,1.10366e+001
-4.96834e-005,-3.87732e-005,1.86035e-001,1.03516e-001,8.64746e-001,5.97561e+000,-1.70732e+000,1.13415e+001
-4.01160e-005,-3.20592e-005,1.93848e-001,1.14746e-001,8.53516e-001,6.03659e+000,-6.09756e-002,1.09756e+001
-2.71916e-005,-3.05486e-005,2.03125e-001,1.30859e-001,8.44727e-001,6.52439e+000,2.25610e+000,1.06098e+001
5.20333e-006,-3.57519e-005,2.03125e-001,1.33789e-001,8.46680e-001,5.91463e+000,2.62195e+000,1.07317e+001
-2.18204e-006,-3.03807e-005,2.00684e-001,1.44531e-001,8.49609e-001,6.03659e+000,3.59756e+000,1.09146e+001
-1.89670e-005,-1.35958e-005,1.97754e-001,1.55273e-001,8.48633e-001,5.42683e+000,3.53659e+000,1.10366e+001
-3.02129e-006,3.52483e-006,1.89941e-001,1.58203e-001,8.45215e-001,4.87805e+000,2.56098e+000,1.16463e+001
-5.53903e-006,3.60876e-005,1.87500e-001,1.54297e-001,8.30566e-001,4.87805e+000,1.64634e+000,1.17683e+001
-1.12459e-005,5.30404e-005,1.90918e-001,1.55762e-001,8.17871e-001,4.45122e+000,-4.26829e-001,1.23780e+001
2.80308e-005,1.00710e-005,1.98242e-001,1.50391e-001,7.92969e-001,3.96341e+000,-1.70732e+000,1.31098e+001
7.26787e-005,-2.36667e-005,2.07031e-001,1.54297e-001,7.76367e-001,2.62195e+000,-1.76829e+000,1.36585e+001
7.82177e-005,-3.02129e-005,2.40234e-001,1.52832e-001,7.46094e-001,1.52439e+000,-1.28049e+000,1.39634e+001
7.57000e-005,-5.03548e-006,2.64160e-001,1.48926e-001,7.42188e-001,6.09756e-001,2.37805e+000,1.42073e+001
6.96574e-005,-1.02388e-004,3.15918e-001,1.36230e-001,7.62695e-001,1.58537e+000,5.54878e+000,1.37805e+001
9.95346e-005,-9.34920e-005,3.34961e-001,1.34766e-001,7.82715e-001,4.08537e+000,1.00610e+001,1.23171e+001
9.58419e-005,2.51774e-006,3.63281e-001,1.37207e-001,8.56445e-001,5.06098e+000,1.15854e+001,1.14024e+001
-4.83406e-005,-2.97093e-005,3.70605e-001,1.38184e-001,9.09180e-001,4.93902e+000,1.12805e+001,9.39024e+000
-1.83291e-004,-5.01869e-005,3.67188e-001,1.25977e-001,1.01514e+000,4.45122e+000,8.96342e+000,7.01220e+000
-1.92187e-004,-3.70947e-005,3.65723e-001,1.15723e-001,1.06738e+000,5.79268e+000,7.74390e+000,5.79268e+000
-1.58618e-004,-2.29953e-005,3.67188e-001,7.47070e-002,1.13721e+000,9.93902e+000,6.89024e+000,3.71951e+000
-1.53414e-004,-3.02129e-006,3.66699e-001,5.22461e-002,1.15869e+000,1.27439e+001,7.07317e+000,2.68293e+000
-1.31258e-004,1.29244e-005,3.58887e-001,2.68555e-002,1.17969e+000,1.71951e+001,1.00000e+001,1.28049e+000
-6.44541e-005,-1.24208e-005,3.58887e-001,1.51367e-002,1.17676e+000,1.80488e+001,1.26220e+001,9.75610e-001
-2.93736e-005,-3.72625e-005,3.50098e-001,1.56250e-002,1.15137e+000,1.87805e+001,2.14024e+001,1.21951e+000
-1.19173e-005,-2.75273e-005,3.42285e-001,2.63672e-002,1.12988e+000,1.87195e+001,2.70122e+001,1.82927e+000
-8.39246e-007,-3.52483e-006,3.36914e-001,5.56641e-002,1.06836e+000,1.79878e+001,4.07317e+001,1.89024e+000
3.52483e-006,3.87732e-005,3.42773e-001,8.49609e-002,9.76563e-001,1.79878e+001,4.86585e+001,2.31707e+000
3.18914e-006,1.00542e-004,3.49609e-001,9.42383e-002,9.30176e-001,1.81707e+001,6.53659e+001,2.74390e+000
7.04967e-006,1.19173e-004,3.65723e-001,1.23535e-001,8.39355e-001,1.83537e+001,7.28049e+001,3.23171e+000
8.22461e-006,9.81918e-005,3.65234e-001,1.33789e-001,8.00781e-001,1.83537e+001,8.42683e+001,3.53659e+000
7.72107e-006,9.28206e-005,3.65234e-001,1.58203e-001,7.57813e-001,1.79268e+001,8.77439e+001,3.53659e+000
9.73526e-006,1.09941e-004,3.68652e-001,1.69434e-001,7.50488e-001,1.61585e+001,9.10366e+001,2.74390e+000
1.27565e-005,1.19677e-004,3.69629e-001,1.83594e-001,7.58789e-001,1.57317e+001,9.19512e+001,1.95122e+000
1.27565e-005,6.96574e-005,3.65723e-001,1.85547e-001,7.69531e-001,1.58537e+001,9.34756e+001,-4.87805e-001
1.25887e-005,4.14588e-005,3.32031e-001,1.71387e-001,7.94434e-001,1.59756e+001,9.35366e+001,-1.70732e+000
1.79599e-005,2.09812e-005,3.12988e-001,1.61621e-001,8.09082e-001,1.76829e+001,9.35976e+001,-2.98780e+000
1.82956e-005,-6.79789e-005,2.70020e-001,1.48926e-001,8.40332e-001,1.81707e+001,9.28049e+001,-3.41463e+000
1.02388e-005,-1.72717e-004,2.42188e-001,1.36719e-001,8.47168e-001,1.86585e+001,8.82317e+001,-3.17073e+000
8.56031e-006,-2.07126e-004,1.89941e-001,1.18164e-001,8.78906e-001,1.89024e+001,8.02439e+001,-2.98780e+000
1.04067e-005,-2.51270e-004,1.63086e-001,1.09863e-001,9.02344e-001,1.91463e+001,7.53659e+001,-2.92683e+000
2.16526e-005,-2.95079e-004,1.06445e-001,9.66797e-002,9.43848e-001,1.76829e+001,6.50000e+001,-2.86585e+000
2.88701e-005,-2.44053e-004,7.17773e-002,8.78906e-002,9.57520e-001,1.73780e+001,6.01829e+001,-2.37805e+000
5.87472e-006,-1.55932e-004,1.07422e-002,8.54492e-002,9.68262e-001,1.56707e+001,4.98171e+001,-1.46341e+000
-1.12459e-005,-8.19104e-005,-6.83594e-003,8.34961e-002,9.61426e-001,1.50000e+001,4.46341e+001,-4.87805e-001
-3.52483e-006,-5.18654e-005,-2.78320e-002,8.15430e-002,9.40430e-001,1.54878e+001,3.71341e+001,9.14634e-001
-1.56100e-005,-4.46479e-005,-3.36914e-002,8.15430e-002,9.26270e-001,1.59146e+001,3.42073e+001,1.70732e+000
-4.06195e-005,2.75273e-005,-3.07617e-002,8.69141e-002,9.07715e-001,1.60976e+001,2.89024e+001,3.35366e+000
-4.38087e-005,5.75723e-005,-1.95313e-002,1.00098e-001,9.17480e-001,1.55488e+001,2.63415e+001,4.08537e+000
-2.03098e-005,6.26078e-005,-1.51367e-002,1.01563e-001,9.27246e-001,1.39024e+001,2.07317e+001,4.87805e+000
-1.49386e-005,7.93927e-005,5.85938e-003,1.15234e-001,9.47266e-001,1.31098e+001,1.78659e+001,5.18293e+000
-1.52743e-005,9.16457e-005,2.09961e-002,1.25000e-001,9.54102e-001,1.20122e+001,1.26220e+001,5.24390e+000
-1.07424e-005,8.03998e-005,5.22461e-002,1.36230e-001,9.47754e-001,1.12805e+001,1.07927e+001,5.18293e+000
-1.09102e-005,5.22011e-005,6.93359e-002,1.45508e-001,9.40918e-001,1.09146e+001,8.35366e+000,4.93902e+000
-1.15816e-005,9.90310e-006,1.02051e-001,1.55273e-001,9.31152e-001,1.13415e+001,8.53659e+000,4.63415e+000
-1.00710e-005,1.84634e-006,1.16211e-001,1.58691e-001,9.24805e-001,1.03049e+001,6.76829e+000,4.39024e+000
-9.56741e-006,2.31632e-005,1.37695e-001,1.66016e-001,9.19434e-001,9.75610e+000,5.79268e+000,4.08537e+000
-1.72885e-005,1.42672e-005,1.40625e-001,1.67969e-001,9.18457e-001,7.43902e+000,4.39024e+000,3.47561e+000
-2.21561e-005,4.36408e-006,1.37695e-001,1.69434e-001,9.11621e-001,6.21951e+000,3.23171e+000,2.98780e+000
-1.81277e-005,2.06455e-005,1.38184e-001,1.65527e-001,9.07715e-001,5.06098e+000,1.15854e+000,2.62195e+000
-1.51064e-005,4.01160e-005,1.43066e-001,1.59668e-001,9.00879e-001,4.45122e+000,-9.75610e-001,2.13415e+000
-1.05745e-005,3.42412e-005,1.50391e-001,1.59180e-001,9.00391e-001,3.90244e+000,-1.58537e+000,1.52439e+000
-1.07424e-005,3.86053e-005,1.48438e-001,1.47949e-001,9.00391e-001,3.29268e+000,-3.47561e+000,1.15854e+000
-1.96384e-005,3.10521e-005,1.55273e-001,1.47949e-001,9.05273e-001,3.35366e+000,-4.20732e+000,7.31707e-001
-3.64233e-005,1.02388e-005,1.74805e-001,1.36230e-001,9.11133e-001,2.80488e+000,-5.85366e+000,6.09756e-001
-3.50805e-005,3.47448e-005,1.89941e-001,1.34766e-001,9.12598e-001,2.98780e+000,-5.85366e+000,-6.09756e-002
-3.12200e-005,6.32792e-005,2.18262e-001,1.28906e-001,9.09180e-001,2.31707e+000,-5.54878e+000,-6.70732e-001
-5.87472e-006,6.56291e-005,2.29004e-001,1.30859e-001,9.07715e-001,1.95122e+000,-5.24390e+000,-7.92683e-001
1.42672e-005,6.49577e-005,2.48535e-001,1.29395e-001,8.85254e-001,2.19512e+000,-3.17073e+000,-4.87805e-001
-9.23171e-006,5.01869e-005,2.55371e-001,1.30859e-001,8.66699e-001,2.07317e+000,-2.31707e+000,-2.43902e-001
-2.13169e-005,8.39246e-007,2.54395e-001,1.26953e-001,8.61328e-001,1.95122e+000,0.00000e+000,3.65854e-001
-9.73526e-006,-2.83665e-005,2.43164e-001,1.21582e-001,8.58887e-001,2.19512e+000,9.75610e-001,2.43902e-001
1.00710e-006,-1.46029e-005,2.33887e-001,1.17676e-001,8.63281e-001,2.68293e+000,3.35366e+000,5.48781e-001
-1.67849e-006,2.66880e-005,2.24609e-001,1.13770e-001,8.83789e-001,3.04878e+000,4.39024e+000,6.70732e-001
-7.88891e-006,1.17494e-005,2.24121e-001,1.14746e-001,8.93066e-001,4.20732e+000,6.40244e+000,5.48781e-001
-2.24918e-005,2.51774e-006,2.17285e-001,1.14746e-001,9.13086e-001,4.45122e+000,7.25610e+000,7.31707e-001
-3.81018e-005,-5.53903e-006,2.20215e-001,1.13770e-001,9.19922e-001,4.87805e+000,8.96342e+000,-3.04878e-001
-3.65911e-005,-2.09812e-005,2.24609e-001,1.16211e-001,9.15527e-001,5.12195e+000,9.57317e+000,-8.53659e-001
-3.75982e-005,-2.13169e-005,2.24609e-001,1.19629e-001,9.09180e-001,5.12195e+000,9.75610e+000,-1.95122e+000
-3.91089e-005,-2.16526e-005,2.22656e-001,1.27441e-001,8.76465e-001,5.18293e+000,9.51220e+000,-2.19512e+000
-2.66880e-005,-4.19623e-006,2.22168e-001,1.27441e-001,8.67188e-001,5.30488e+000,8.96342e+000,-2.13415e+000
-1.76242e-005,-2.85344e-006,2.07520e-001,1.37695e-001,8.51074e-001,4.45122e+000,7.80488e+000,-2.62195e+000
-8.89601e-006,-1.64492e-005,1.97266e-001,1.35254e-001,8.51563e-001,4.32927e+000,7.43902e+000,-2.62195e+000
2.24918e-005,-1.17494e-005,1.79688e-001,1.37207e-001,8.63770e-001,3.47561e+000,5.73171e+000,-2.80488e+000
3.00450e-005,-4.19623e-006,1.67480e-001,1.34277e-001,8.69141e-001,3.04878e+000,5.00000e+000,-3.41463e+000
2.23239e-005,6.37827e-006,1.49414e-001,1.34277e-001,8.92090e-001,2.56098e+000,3.59756e+000,-3.84146e+000
5.37118e-006,-3.35698e-007,1.41602e-001,1.32324e-001,8.99902e-001,2.68293e+000,2.98780e+000,-4.63415e+000
-1.12459e-005,-1.29244e-005,1.28418e-001,1.27930e-001,9.00391e-001,2.56098e+000,2.62195e+000,-4.93902e+000
-2.03098e-005,-1.40993e-005,1.25000e-001,1.26953e-001,8.95508e-001,2.43902e+000,2.80488e+000,-4.93902e+000
-3.07164e-005,-2.23239e-005,1.25488e-001,1.21094e-001,8.84766e-001,3.47561e+000,2.68293e+000,-5.00000e+000
-3.57519e-005,-1.44350e-005,1.33789e-001,1.20117e-001,8.91602e-001,3.23171e+000,2.37805e+000,-5.42683e+000
-3.37377e-005,7.21752e-006,1.36230e-001,1.17188e-001,9.01367e-001,2.86585e+000,1.89024e+000,-5.79268e+000
-3.69268e-005,2.38346e-005,1.30371e-001,1.15234e-001,9.25781e-001,1.95122e+000,1.70732e+000,-6.15854e+000
-4.21302e-005,1.76242e-005,1.27441e-001,1.13281e-001,9.37500e-001,1.64634e+000,1.82927e+000,-6.40244e+000
-3.25628e-005,1.29244e-005,1.26953e-001,1.07422e-001,9.39453e-001,2.31707e+000,2.80488e+000,-6.76829e+000
-3.17235e-005,5.20333e-006,1.25488e-001,1.04004e-001,9.33105e-001,3.10976e+000,4.51220e+000,-6.40244e+000
-3.23949e-005,6.37827e-006,1.31348e-001,1.02539e-001,9.12598e-001,3.71951e+000,5.48780e+000,-5.97561e+000
-2.31632e-005,-5.20333e-006,1.38672e-001,1.08887e-001,9.00879e-001,4.81707e+000,6.15854e+000,-5.48780e+000
-1.96384e-005,3.86053e-006,1.41602e-001,1.19141e-001,8.87695e-001,4.87805e+000,6.40244e+000,-5.36585e+000
-2.11490e-005,3.77661e-005,1.44043e-001,1.19629e-001,8.86719e-001,4.93902e+000,5.67073e+000,-4.93902e+000
-2.43381e-005,1.82956e-005,1.45508e-001,1.24512e-001,8.94531e-001,5.12195e+000,4.87805e+000,-4.69512e+000
-2.93736e-005,-4.07874e-005,1.39648e-001,1.25977e-001,9.00879e-001,5.12195e+000,2.92683e+000,-4.14634e+000
-3.67590e-005,-8.81209e-005,1.36719e-001,1.23535e-001,9.19922e-001,5.00000e+000,3.04878e-001,-4.14634e+000
-1.99741e-005,-6.52934e-005,1.34277e-001,1.18164e-001,9.31641e-001,5.42683e+000,-2.43902e-001,-4.20732e+000
-5.70687e-006,3.35698e-007,1.37695e-001,1.16699e-001,9.39453e-001,4.87805e+000,-1.03659e+000,-4.93902e+000
-2.51774e-006,-1.25887e-005,1.29883e-001,1.11328e-001,9.45313e-001,5.00000e+000,-1.21951e+000,-5.00000e+000
9.90310e-006,-2.97093e-005,1.33301e-001,1.22070e-001,9.35059e-001,4.87805e+000,-1.95122e+000,-4.81707e+000
2.19883e-005,-2.26596e-005,1.42090e-001,1.25488e-001,9.30664e-001,4.63415e+000,-2.25610e+000,-5.48780e+000
2.90379e-005,-4.38087e-005,1.53809e-001,1.30859e-001,9.21387e-001,4.81707e+000,-2.07317e+000,-5.67073e+000
2.51774e-005,-4.04517e-005,1.58691e-001,1.31836e-001,9.16504e-001,4.93902e+000,-1.70732e+000,-5.67073e+000
-4.19623e-006,-4.93477e-005,1.60645e-001,1.34277e-001,9.00879e-001,5.00000e+000,-9.75610e-001,-6.21951e+000
-1.67849e-005,-5.70687e-005,1.69922e-001,1.35742e-001,8.95996e-001,4.93902e+000,-7.31707e-001,-6.58537e+000
-3.84375e-005,-2.46738e-005,1.68457e-001,1.36230e-001,9.01367e-001,5.18293e+000,-6.09756e-002,-6.70732e+000
-6.61326e-005,-2.88701e-005,1.71387e-001,1.36230e-001,9.27734e-001,5.36585e+000,0.00000e+000,-7.19512e+000
-5.38796e-005,-2.76951e-005,1.63574e-001,1.32813e-001,9.41895e-001,5.60976e+000,7.31707e-001,-8.10976e+000
-2.85344e-005,-4.86763e-006,1.50879e-001,1.37207e-001,9.67773e-001,5.12195e+000,4.26829e-001,-8.41463e+000
-2.58488e-005,-3.35698e-007,1.45996e-001,1.40625e-001,9.72168e-001,4.69512e+000,-2.43902e-001,-9.63415e+000
-1.72885e-005,-2.51774e-006,1.47949e-001,1.41602e-001,9.59961e-001,4.69512e+000,-7.31707e-001,-1.00000e+001
-1.47707e-005,-1.42672e-005,1.55762e-001,1.45996e-001,9.41895e-001,4.63415e+000,-8.53659e-001,-1.04878e+001
-1.57778e-005,-1.62814e-005,1.64551e-001,1.49902e-001,9.10645e-001,4.32927e+000,-7.31707e-001,-1.06707e+001
-1.20851e-005,-2.51774e-006,1.78223e-001,1.51367e-001,8.94043e-001,4.57317e+000,4.26829e-001,-1.07927e+001
-1.22530e-005,1.04067e-005,1.87500e-001,1.50391e-001,8.79395e-001,4.39024e+000,7.31707e-001,-1.10976e+001
-9.06386e-006,1.59457e-005,1.83594e-001,1.50391e-001,8.77930e-001,4.02439e+000,9.14634e-001,-1.12195e+001
-6.21042e-006,1.96384e-005,1.75293e-001,1.49414e-001,8.81348e-001,2.37805e+000,-4.26829e-001,-1.12805e+001
-5.53903e-006,1.93027e-005,1.66992e-001,1.45996e-001,8.85254e-001,2.01220e+000,-1.46341e+000,-1.13415e+001
-6.21042e-006,1.10781e-005,1.49902e-001,1.45996e-001,8.81836e-001,1.89024e+000,-3.53659e+000,-1.15244e+001
-1.09102e-005,-1.84634e-006,1.39648e-001,1.47949e-001,8.80371e-001,2.13415e+000,-4.93902e+000,-1.11585e+001
-9.73526e-006,-2.80308e-005,1.31836e-001,1.45508e-001,8.75488e-001,2.01220e+000,-8.78049e+000,-1.09756e+001
-5.53903e-006,-4.14588e-005,1.32324e-001,1.44531e-001,8.80859e-001,1.34146e+000,-1.04878e+001,-1.10366e+001
5.87472e-006,-4.04517e-005,1.26465e-001,1.44043e-001,8.91113e-001,-1.21951e-001,-1.41463e+001,-1.10976e+001
5.20333e-006,-3.74304e-005,1.20117e-001,1.44043e-001,8.99414e-001,-1.28049e+000,-1.62805e+001,-1.11585e+001
-8.22461e-006,-3.64233e-005,1.17188e-001,1.33301e-001,9.16992e-001,-1.89024e+000,-1.95732e+001,-1.13415e+001
-2.23239e-005,3.15557e-005,1.12305e-001,1.28418e-001,9.22852e-001,-2.07317e+000,-2.04878e+001,-1.12195e+001
-2.56809e-005,1.69696e-004,1.15723e-001,1.25488e-001,9.21387e-001,-2.01220e+000,-2.18293e+001,-1.11585e+001
-1.76242e-005,1.48714e-004,1.13770e-001,1.19141e-001,9.13574e-001,-1.58537e+000,-2.18902e+001,-1.10976e+001
4.19623e-006,4.64942e-005,1.20605e-001,1.17188e-001,9.08203e-001,-1.82927e+000,-2.17683e+001,-1.03049e+001
-3.52483e-006,2.23239e-005,1.24023e-001,1.14258e-001,9.13574e-001,-2.25610e+000,-2.12805e+001,-1.00000e+001
-2.65202e-005,1.35958e-005,1.29883e-001,1.14746e-001,9.16504e-001,-1.52439e+000,-1.95122e+001,-1.00610e+001
-1.46029e-005,6.71397e-007,1.29395e-001,1.13770e-001,9.31641e-001,-1.40244e+000,-1.92073e+001,-1.00000e+001
1.67849e-007,-5.53903e-006,1.28418e-001,1.12793e-001,9.33105e-001,-2.13415e+000,-1.84756e+001,-9.87805e+000
2.34989e-006,-3.13878e-005,1.28906e-001,1.14746e-001,9.35547e-001,-1.64634e+000,-1.77439e+001,-9.51220e+000
6.54612e-006,-1.15816e-005,1.25977e-001,1.12305e-001,9.35059e-001,-1.52439e+000,-1.81098e+001,-8.47561e+000
-2.51774e-006,1.69528e-005,1.29883e-001,1.05957e-001,9.22363e-001,-7.31707e-001,-1.82317e+001,-7.92683e+000
-3.44091e-005,-3.52483e-006,1.36719e-001,1.09375e-001,9.16504e-001,-1.82927e-001,-1.82317e+001,-6.46341e+000
-3.23949e-005,1.96384e-005,1.39648e-001,1.04980e-001,9.12109e-001,-1.82927e-001,-1.76220e+001,-5.60976e+000
-2.56809e-005,1.15816e-005,1.36230e-001,1.03516e-001,9.06250e-001,-3.65854e-001,-1.70732e+001,-5.12195e+000
-2.21561e-005,-1.44350e-005,1.08887e-001,1.04004e-001,8.98438e-001,6.09756e-002,-1.59756e+001,-4.63415e+000
-1.74563e-005,-3.87732e-005,9.86328e-002,1.05469e-001,8.94043e-001,1.82927e-001,-1.56098e+001,-3.96341e+000
-1.69528e-005,-3.00450e-005,7.22656e-002,1.06445e-001,8.81348e-001,3.04878e-001,-1.43902e+001,-2.43902e+000
-1.32601e-005,-9.90310e-006,6.29883e-002,1.10352e-001,8.71582e-001,3.65854e-001,-1.40854e+001,-1.46341e+000
-4.19623e-006,-1.40993e-005,5.61523e-002,1.18652e-001,8.62793e-001,-8.53659e-001,-1.52439e+001,-5.48781e-001
-1.84634e-006,1.40993e-005,4.78516e-002,1.28906e-001,8.62305e-001,-1.21951e+000,-1.63415e+001,1.82927e-001
-8.39246e-007,3.86053e-005,3.90625e-002,1.36230e-001,8.72070e-001,-2.25610e+000,-2.01220e+001,7.31707e-001
5.03548e-007,3.87732e-005,3.36914e-002,1.41602e-001,8.98926e-001,-2.92683e+000,-2.18902e+001,7.92683e-001
6.04257e-006,1.94705e-005,3.61328e-002,1.42578e-001,9.16992e-001,-3.23171e+000,-2.50610e+001,9.14634e-001
1.49386e-005,-3.27306e-005,3.71094e-002,1.37207e-001,9.64844e-001,-3.29268e+000,-2.62195e+001,9.14634e-001
1.67849e-007,-4.24659e-005,4.19922e-002,1.32324e-001,9.83887e-001,-2.92683e+000,-2.77439e+001,1.76829e+000
-3.00450e-005,-2.19883e-005,6.34766e-002,1.24023e-001,1.00830e+000,-2.25610e+000,-2.79878e+001,1.89024e+000
-3.35698e-006,-4.73335e-005,7.71484e-002,1.20605e-001,1.00439e+000,-1.28049e+000,-2.85976e+001,2.86585e+000
7.36858e-005,-5.79080e-005,1.05469e-001,1.13281e-001,9.86816e-001,-9.75610e-001,-2.84756e+001,2.92683e+000
1.09773e-004,3.17235e-005,1.21582e-001,1.16699e-001,9.70703e-001,-2.43902e-001,-2.96341e+001,2.86585e+000
9.48348e-005,9.36599e-005,1.30859e-001,1.18164e-001,9.33105e-001,-7.31707e-001,-3.02439e+001,2.74390e+000
-2.70237e-005,1.93027e-005,1.31836e-001,1.26953e-001,9.20410e-001,-1.34146e+000,-3.15854e+001,2.56098e+000
-1.34783e-004,-5.42153e-005,1.42578e-001,1.34277e-001,9.07715e-001,-1.52439e+000,-3.19512e+001,2.31707e+000
-1.44183e-004,-9.71847e-005,1.40137e-001,1.41113e-001,9.02344e-001,-2.31707e+000,-3.31098e+001,1.64634e+000
-1.14305e-004,-8.07355e-005,1.41113e-001,1.48438e-001,9.08203e-001,-3.23171e+000,-3.31098e+001,8.53659e-001
-1.20684e-004,-4.38087e-005,1.42090e-001,1.53809e-001,9.08203e-001,-3.17073e+000,-3.28049e+001,6.09756e-001
-1.40490e-004,-8.10712e-005,1.48926e-001,1.53809e-001,9.13086e-001,-3.78049e+000,-3.27439e+001,1.21951e-001
-1.12963e-004,-9.51705e-005,1.56250e-001,1.56738e-001,9.00879e-001,-4.02439e+000,-3.26829e+001,1.82927e-001
-5.65652e-005,-4.88441e-005,1.72363e-001,1.61133e-001,8.68652e-001,-3.53659e+000,-3.22561e+001,-4.26829e-001
-2.98772e-005,-5.53903e-006,1.87988e-001,1.63086e-001,8.55957e-001,-3.71951e+000,-3.19512e+001,-7.31707e-001
-1.02388e-005,2.01419e-005,2.10449e-001,1.65527e-001,8.25684e-001,-4.08537e+000,-3.15854e+001,-1.95122e+000
7.55322e-006,2.29953e-005,2.20215e-001,1.67969e-001,8.16895e-001,-5.18293e+000,-3.18902e+001,-2.07317e+000
5.87472e-006,1.77920e-005,2.28027e-001,1.67480e-001,8.21289e-001,-5.85366e+000,-3.19512e+001,-3.35366e+000
5.20333e-006,3.30663e-005,2.35840e-001,1.58691e-001,8.44238e-001,-6.28049e+000,-3.20732e+001,-3.96341e+000
6.88182e-006,3.77661e-005,2.35352e-001,1.49902e-001,8.61328e-001,-6.64634e+000,-3.22561e+001,-4.45122e+000
6.21042e-006,3.20592e-005,2.33398e-001,1.37207e-001,8.99414e-001,-6.21951e+000,-3.26220e+001,-4.75610e+000
1.19173e-005,4.68299e-005,2.33887e-001,1.30371e-001,9.18457e-001,-5.24390e+000,-3.10366e+001,-5.06098e+000
1.14137e-005,5.05226e-005,2.29004e-001,1.13770e-001,9.62402e-001,-4.63415e+000,-3.02439e+001,-5.06098e+000
5.70687e-006,6.37827e-006,2.21680e-001,1.03027e-001,9.84375e-001,-3.41463e+000,-2.71951e+001,-5.79268e+000
2.85344e-006,-2.53452e-005,2.00195e-001,8.93555e-002,1.02539e+000,-2.19512e+000,-2.52439e+001,-6.03659e+000
5.03548e-006,-1.52743e-005,1.97266e-001,8.44727e-002,1.04102e+000,1.82927e-001,-2.04268e+001,-6.70732e+000
3.52483e-006,1.09102e-005,1.87988e-001,8.34961e-002,1.01367e+000,1.21951e+000,-1.82317e+001,-6.95122e+000
-4.19623e-006,1.86313e-005,1.86035e-001,7.86133e-002,9.84375e-001,2.01220e+000,-1.45732e+001,-7.31707e+000
-8.39246e-006,1.67849e-007,2.06543e-001,7.22656e-002,9.39453e-001,2.80488e+000,-1.30488e+001,-6.95122e+000
-2.18204e-006,-1.93027e-005,2.35352e-001,7.27539e-002,9.16992e-001,4.81707e+000,-9.75610e+000,-6.28049e+000
5.03548e-007,-1.46029e-005,2.96387e-001,8.15430e-002,8.92578e-001,5.79268e+000,-5.00000e+000,-5.79268e+000
1.17494e-006,2.66880e-005,3.19336e-001,9.13086e-002,8.93555e-001,6.03659e+000,-3.10976e+000,-6.15854e+000
2.01419e-006,3.81018e-005,3.38379e-001,1.13770e-001,9.09668e-001,5.30488e+000,3.65854e-001,-6.52439e+000
1.17494e-006,-1.69528e-005,3.33008e-001,1.23535e-001,9.27246e-001,5.18293e+000,1.09756e+000,-6.52439e+000
5.87472e-006,-2.13169e-005,2.98828e-001,1.31348e-001,9.62891e-001,5.42683e+000,6.70732e-001,-7.37805e+000
1.39315e-005,-3.69268e-006,2.73926e-001,1.30371e-001,9.74121e-001,6.15854e+000,-4.26829e-001,-7.31707e+000
1.84634e-006,-7.88891e-006,2.14844e-001,1.23535e-001,9.88281e-001,7.37805e+000,-4.63415e+000,-7.31707e+000
-7.88891e-006,-1.42672e-005,1.90430e-001,1.18164e-001,9.84863e-001,7.86585e+000,-5.91463e+000,-7.31707e+000
-1.51064e-006,-8.39246e-007,1.58203e-001,1.13770e-001,9.65820e-001,8.10976e+000,-8.10976e+000,-6.70732e+000
3.18914e-006,3.52483e-006,1.47461e-001,1.18164e-001,9.41406e-001,8.10976e+000,-8.29268e+000,-6.28049e+000
3.35698e-007,7.04967e-006,1.50879e-001,1.21094e-001,9.25781e-001,7.56098e+000,-7.50000e+000,-6.03659e+000
-4.36408e-006,1.25887e-005,1.71387e-001,1.21582e-001,8.86230e-001,7.25610e+000,-6.58537e+000,-5.54878e+000
-1.09102e-005,-1.32601e-005,1.87012e-001,1.26465e-001,8.66211e-001,6.52439e+000,-4.81707e+000,-5.54878e+000
-2.21561e-005,-4.07874e-005,2.15332e-001,1.29395e-001,8.32520e-001,5.97561e+000,-4.69512e+000,-5.54878e+000
-2.97093e-005,-4.61585e-005,2.34375e-001,1.32324e-001,8.16895e-001,5.60976e+000,-4.75610e+000,-5.54878e+000
-3.00450e-005,-4.75013e-005,2.60254e-001,1.44531e-001,8.10547e-001,5.73171e+000,-5.36585e+000,-5.91463e+000
-1.56100e-005,-4.41444e-005,2.67090e-001,1.45020e-001,8.22754e-001,5.18293e+000,-5.97561e+000,-6.70732e+000
-9.56741e-006,-3.13878e-005,2.68066e-001,1.52832e-001,8.54980e-001,4.75610e+000,-5.85366e+000,-6.82927e+000
-1.19173e-005,-3.10521e-005,2.60254e-001,1.48438e-001,8.75000e-001,3.96341e+000,-5.85366e+000,-7.13415e+000
-1.62814e-005,-2.83665e-005,2.49512e-001,1.51855e-001,9.07227e-001,3.90244e+000,-5.97561e+000,-6.89024e+000
-1.49386e-005,-2.26596e-005,2.41211e-001,1.40625e-001,9.17969e-001,4.81707e+000,-6.58537e+000,-6.95122e+000
-1.02388e-005,1.29244e-005,2.16309e-001,1.25000e-001,9.33105e-001,6.09756e+000,-8.23171e+000,-6.03659e+000
-1.12459e-005,1.27398e-004,2.03125e-001,1.26953e-001,9.32129e-001,6.46341e+000,-8.78049e+000,-5.67073e+000
-9.90310e-006,1.37804e-004,1.87012e-001,1.18164e-001,9.11621e-001,6.21951e+000,-9.81707e+000,-5.91463e+000
-8.72816e-006,5.47189e-005,1.80664e-001,1.17676e-001,8.90625e-001,5.42683e+000,-1.03049e+001,-5.91463e+000
-7.55322e-006,3.84375e-005,1.65527e-001,1.03027e-001,8.43750e-001,4.87805e+000,-1.17683e+001,-6.70732e+000
-1.29244e-005,2.01419e-006,1.51855e-001,9.32617e-002,8.13477e-001,5.12195e+000,-1.25000e+001,-7.50000e+000
-2.43381e-005,-5.69009e-005,1.38672e-001,8.20313e-002,7.64648e-001,5.60976e+000,-1.39024e+001,-7.74390e+000
-2.23239e-005,-4.02838e-005,1.24023e-001,8.64258e-002,7.52930e-001,5.73171e+000,-1.43293e+001,-7.74390e+000
-2.16526e-005,-2.50095e-005,1.16699e-001,8.88672e-002,7.66602e-001,5.91463e+000,-1.52439e+001,-7.98780e+000
-2.83665e-005,2.34989e-006,1.05469e-001,9.86328e-002,8.12988e-001,5.42683e+000,-1.63415e+001,-7.50000e+000
-2.76951e-005,-9.73526e-006,9.61914e-002,1.08887e-001,8.50098e-001,4.45122e+000,-1.87195e+001,-6.21951e+000
-1.52743e-005,-1.82956e-005,7.91016e-002,1.15723e-001,9.19434e-001,4.26829e+000,-1.99390e+001,-5.79268e+000
-1.05745e-005,2.85344e-006,7.66602e-002,1.15723e-001,9.53613e-001,5.00000e+000,-2.28659e+001,-4.45122e+000
-1.82956e-005,8.56031e-006,8.64258e-002,1.13770e-001,1.02002e+000,5.48780e+000,-2.39024e+001,-3.78049e+000
-6.54612e-006,7.55322e-006,9.27734e-002,1.13770e-001,1.04492e+000,6.28049e+000,-2.62805e+001,-2.19512e+000
-1.00710e-006,-3.69268e-006,1.09375e-001,9.76563e-002,1.07617e+000,6.46341e+000,-2.78049e+001,-1.95122e+000
-2.85344e-005,-3.42412e-005,1.26465e-001,9.27734e-002,1.07813e+000,6.76829e+000,-3.12195e+001,-1.70732e+000
-6.14328e-005,-6.36149e-005,1.59668e-001,7.51953e-002,1.05908e+000,6.89024e+000,-3.21341e+001,-1.70732e+000
-7.16716e-005,-5.00191e-005,1.79199e-001,7.32422e-002,1.03613e+000,7.68293e+000,-3.34146e+001,-2.13415e+000
-5.11940e-005,-2.73594e-005,2.22168e-001,6.68945e-002,9.78027e-001,8.04878e+000,-3.28049e+001,-2.31707e+000
-2.66880e-005,-1.54421e-005,2.46094e-001,6.88477e-002,9.52637e-001,8.53659e+000,-2.98171e+001,-1.89024e+000
-1.40993e-005,7.88891e-006,2.79785e-001,7.66602e-002,9.04785e-001,8.65854e+000,-2.51220e+001,-1.76829e+000
-1.30922e-005,4.63264e-005,2.90527e-001,8.64258e-002,8.93066e-001,8.71951e+000,-2.20732e+001,-1.76829e+000
-1.82956e-005,5.48867e-005,2.91992e-001,1.08398e-001,8.72070e-001,8.41463e+000,-1.53049e+001,-1.58537e+000
-1.69528e-005,4.46479e-005,2.93457e-001,1.19629e-001,8.61816e-001,8.17073e+000,-1.16463e+001,-1.15854e+000
-8.39246e-006,2.66880e-005,2.82227e-001,1.40137e-001,8.54492e-001,8.29268e+000,-5.36585e+000,-2.43902e-001
-3.69268e-006,1.12459e-005,2.72461e-001,1.49902e-001,8.48633e-001,8.47561e+000,-2.68293e+000,-4.26829e-001
-2.18204e-006,-3.35698e-007,2.45605e-001,1.66992e-001,8.49121e-001,8.10976e+000,1.09756e+000,2.43902e-001
-6.37827e-006,-4.53193e-006,2.33398e-001,1.82129e-001,8.47168e-001,8.23171e+000,2.13415e+000,1.21951e-001
-1.62814e-005,-2.23239e-005,2.26074e-001,1.82617e-001,8.49609e-001,7.50000e+000,2.13415e+000,0.00000e+000
-1.98062e-005,-9.90310e-006,2.14844e-001,1.83594e-001,8.53027e-001,6.89024e+000,1.70732e+000,-4.26829e-001
-1.71206e-005,3.20592e-005,2.08008e-001,1.82129e-001,8.62305e-001,6.09756e+000,-3.04878e-001,-1.21951e+000
-1.89670e-005,2.11490e-005,1.99707e-001,1.77734e-001,8.82813e-001,5.79268e+000,-1.21951e+000,-1.89024e+000
-1.44350e-005,-6.21042e-006,1.95801e-001,1.73340e-001,8.90625e-001,4.39024e+000,-3.04878e+000,-3.23171e+000
-1.10781e-005,-5.87472e-006,1.87012e-001,1.71875e-001,8.95996e-001,3.78049e+000,-3.90244e+000,-3.53659e+000
-1.14137e-005,-1.05745e-005,1.85059e-001,1.74316e-001,8.88672e-001,2.31707e+000,-6.70732e+000,-4.08537e+000
-1.29244e-005,-5.32082e-005,1.75781e-001,1.62109e-001,8.48633e-001,1.70732e+000,-8.23171e+000,-4.20732e+000
-7.55322e-006,-5.69009e-005,1.78711e-001,1.65527e-001,8.20313e-001,9.14634e-001,-1.10366e+001,-4.14634e+000
-1.17494e-006,-3.97803e-005,1.81152e-001,1.57227e-001,7.68555e-001,1.82927e-001,-1.23780e+001,-4.08537e+000
-1.17494e-006,-6.73075e-005,1.87988e-001,1.57715e-001,7.50977e-001,1.21951e-001,-1.50000e+001,-3.84146e+000
-1.84634e-006,-8.79530e-005,2.07520e-001,1.49902e-001,7.42676e-001,-3.65854e-001,-1.57317e+001,-3.84146e+000
-4.86763e-006,-8.14069e-005,2.24121e-001,1.46973e-001,7.47559e-001,-1.64634e+000,-1.50610e+001,-3.78049e+000
-1.67849e-006,-2.76951e-005,2.48535e-001,1.25488e-001,7.72461e-001,-2.31707e+000,-1.22561e+001,-4.02439e+000
3.52483e-006,3.69268e-005,2.59277e-001,1.15723e-001,7.86133e-001,-2.13415e+000,-1.02439e+001,-4.08537e+000
-2.34989e-006,2.40024e-005,2.70996e-001,9.66797e-002,8.14941e-001,-1.82927e-001,-7.43902e+000,-4.45122e+000
-8.89601e-006,4.91798e-005,2.66113e-001,9.42383e-002,8.27148e-001,7.92683e-001,-6.46341e+000,-4.51220e+000
-1.32601e-005,4.53193e-005,2.27051e-001,9.37500e-002,8.38867e-001,1.52439e+000,-7.01220e+000,-4.45122e+000
-1.72885e-005,-1.00710e-006,2.04102e-001,9.66797e-002,8.47656e-001,1.28049e+000,-8.53659e+000,-4.02439e+000
-1.62814e-005,2.73594e-005,1.43066e-001,1.04980e-001,8.61328e-001,1.09756e+000,-1.25000e+001,-2.43902e+000
-1.30922e-005,5.82437e-005,9.42383e-002,1.16699e-001,8.65723e-001,1.15854e+000,-1.55488e+001,-1.64634e+000
-7.04967e-006,3.18914e-005,7.47070e-002,1.23535e-001,8.60840e-001,2.01220e+000,-2.07317e+001,-2.43902e-001
-3.35698e-007,2.46738e-005,5.41992e-002,1.29883e-001,8.45215e-001,2.25610e+000,-2.37195e+001,5.48781e-001
-3.35698e-007,-5.87472e-006,5.37109e-002,1.28906e-001,8.29102e-001,2.31707e+000,-2.99390e+001,1.64634e+000
-1.09102e-005,-8.20783e-005,8.05664e-002,1.27441e-001,7.94922e-001,2.50000e+000,-3.30488e+001,2.07317e+000
-1.44350e-005,-1.10948e-004,1.01074e-001,1.23047e-001,7.78809e-001,2.62195e+000,-3.89024e+001,2.68293e+000
-1.49386e-005,-9.34920e-005,1.57715e-001,1.15723e-001,7.53418e-001,2.37805e+000,-4.10976e+001,2.56098e+000
-2.13169e-005,-3.55840e-005,1.87500e-001,1.14746e-001,7.51465e-001,2.01220e+000,-4.35976e+001,2.25610e+000
-2.06455e-005,1.01884e-004,2.31445e-001,1.12793e-001,7.65625e-001,2.37805e+000,-4.36585e+001,1.46341e+000
-2.71916e-005,1.44518e-004,2.39746e-001,1.14258e-001,7.87109e-001,2.92683e+000,-4.29268e+001,1.82927e-001
-3.07164e-005,5.20333e-005,2.36328e-001,1.25977e-001,8.43750e-001,3.65854e+000,-4.17073e+001,-1.21951e-001
-2.76951e-005,-2.01419e-006,2.27051e-001,1.29395e-001,8.83301e-001,4.75610e+000,-3.92683e+001,-3.04878e-001
-2.36667e-005,4.19623e-006,1.99219e-001,1.35254e-001,9.47266e-001,5.24390e+000,-3.78659e+001,-2.43902e-001
-1.46029e-005,-2.68559e-006,1.81152e-001,1.34766e-001,9.68750e-001,5.97561e+000,-3.54878e+001,3.65854e-001
-1.05745e-005,-2.80308e-005,1.47461e-001,1.32813e-001,9.95117e-001,7.37805e+000,-3.35976e+001,1.21951e+000
-1.15816e-005,-2.14847e-005,1.43555e-001,1.25488e-001,9.92188e-001,8.59756e+000,-3.30488e+001,1.95122e+000
-1.00710e-005,2.87022e-005,1.37207e-001,1.21582e-001,9.82422e-001,1.09756e+001,-3.17683e+001,2.68293e+000
-1.86313e-005,6.61326e-005,1.46484e-001,1.21582e-001,9.75586e-001,1.17073e+001,-3.09146e+001,2.74390e+000
-1.99741e-005,2.36667e-005,1.70410e-001,1.21094e-001,9.90723e-001,1.13415e+001,-2.84756e+001,2.86585e+000
5.53903e-006,5.87472e-006,1.83594e-001,1.25977e-001,1.00635e+000,1.15244e+001,-2.67073e+001,2.31707e+000
-6.37827e-006,5.74044e-005,1.99707e-001,1.30859e-001,1.04688e+000,9.69512e+000,-2.34756e+001,1.70732e+000
-4.28016e-005,-3.86053e-006,2.02637e-001,1.28418e-001,1.07324e+000,9.69512e+000,-2.17683e+001,1.52439e+000
-4.71656e-005,-8.50996e-005,1.98730e-001,1.30859e-001,1.06689e+000,9.81707e+000,-1.83537e+001,1.70732e+000
-3.47448e-005,-1.06249e-004,1.91406e-001,1.27441e-001,1.00244e+000,9.63415e+000,-1.61585e+001,2.01220e+000
-2.76951e-005,-1.13802e-004,1.86035e-001,1.31348e-001,9.50684e-001,9.93902e+000,-1.12805e+001,3.53659e+000
-2.48417e-005,-8.71138e-005,1.93848e-001,1.38184e-001,8.36426e-001,1.03659e+001,-8.23171e+000,4.81707e+000
-2.31632e-005,-4.31373e-005,2.08496e-001,1.42578e-001,7.78809e-001,1.18293e+001,-2.62195e+000,7.25610e+000
-1.93027e-005,-1.46029e-005,2.53418e-001,1.62598e-001,7.11426e-001,1.22561e+001,1.21951e-001,8.17073e+000
-1.19173e-005,2.63523e-005,2.73438e-001,1.70410e-001,7.00684e-001,1.10366e+001,4.45122e+000,9.20732e+000
-5.87472e-006,4.88441e-005,3.07129e-001,1.87988e-001,7.28516e-001,9.57317e+000,5.54878e+000,9.26829e+000
-9.06386e-006,3.20592e-005,3.10059e-001,1.92383e-001,7.62207e-001,7.19512e+000,7.31707e+000,8.84146e+000
-8.56031e-006,3.60876e-005,3.07617e-001,1.92383e-001,8.35449e-001,6.40244e+000,7.86585e+000,8.35366e+000
-7.04967e-006,4.38087e-005,2.90527e-001,1.89453e-001,8.72070e-001,6.40244e+000,7.56098e+000,7.50000e+000
-9.73526e-006,2.87022e-005,2.39258e-001,1.88965e-001,9.04297e-001,6.95122e+000,6.95122e+000,7.43902e+000
-9.90310e-006,3.86053e-006,2.08984e-001,1.87500e-001,8.95508e-001,7.37805e+000,5.30488e+000,6.95122e+000
-1.02388e-005,3.86053e-006,1.64063e-001,1.94824e-001,8.32520e-001,7.37805e+000,2.37805e+000,7.50000e+000
-5.53903e-006,3.34020e-005,1.50391e-001,1.95313e-001,7.86133e-001,7.25610e+000,9.75610e-001,8.10976e+000
2.85344e-006,9.98703e-005,1.49902e-001,2.00195e-001,6.73828e-001,6.34146e+000,-1.82927e+000,9.20732e+000
-3.69268e-006,1.40826e-004,1.61133e-001,1.99707e-001,6.31836e-001,5.18293e+000,-2.07317e+000,9.63415e+000
-4.02838e-006,1.37301e-004,1.90918e-001,1.94336e-001,6.27441e-001,4.26829e+000,0.00000e+000,9.87805e+000
1.12459e-005,1.05913e-004,2.08008e-001,1.95313e-001,6.51855e-001,4.08537e+000,1.82927e+000,9.51220e+000
4.68299e-005,-4.86763e-006,2.20215e-001,2.00195e-001,7.41211e-001,2.62195e+000,3.84146e+000,9.08537e+000
8.87923e-005,-7.90570e-005,2.01660e-001,2.04102e-001,8.68652e-001,1.52439e+000,3.78049e+000,9.26829e+000
1.39147e-004,-3.84375e-005,2.09473e-001,2.00195e-001,9.23340e-001,6.09756e-002,1.03659e+000,8.71951e+000
1.45190e-004,-2.46738e-005,2.49512e-001,1.58203e-001,1.01367e+000,2.43902e-001,-3.65854e-001,7.80488e+000
5.62295e-005,-1.56268e-004,2.84180e-001,1.32324e-001,1.04150e+000,5.36585e+000,-1.82927e-001,4.45122e+000
-7.40215e-005,-2.37171e-004,3.57910e-001,6.49414e-002,1.08252e+000,8.84146e+000,-5.48781e-001,2.56098e+000
-1.47204e-004,-1.84131e-004,3.91113e-001,3.66211e-002,1.09521e+000,1.58537e+001,-2.43902e+000,-1.46341e+000
-7.40215e-005,-2.93736e-005,4.36035e-001,1.95313e-003,1.11084e+000,1.81707e+001,-3.23171e+000,-3.17073e+000
-1.22530e-005,-2.87022e-005,4.33594e-001,-1.95313e-003,1.11084e+000,1.82927e+001,-3.90244e+000,-6.34146e+000
-1.10613e-004,-1.49386e-004,3.96484e-001,8.30078e-003,1.09082e+000,1.81707e+001,-1.58537e+000,-7.25610e+000
-1.80102e-004,-1.57610e-004,3.65234e-001,1.66016e-002,1.06836e+000,1.83537e+001,7.62195e+000,-6.76829e+000
-1.61807e-004,-8.84566e-005,3.11523e-001,4.83398e-002,9.96582e-001,1.95122e+001,1.53659e+001,-5.60976e+000
-1.12627e-004,-5.25368e-005,2.86621e-001,6.44531e-002,9.58008e-001,2.25000e+001,3.39024e+001,-2.56098e+000
-6.49577e-005,3.02129e-005,2.44629e-001,1.03027e-001,8.92578e-001,2.31707e+001,4.33537e+001,-1.03659e+000
-2.87022e-005,8.17426e-005,2.24609e-001,1.28418e-001,8.67676e-001,2.29878e+001,5.88415e+001,1.52439e+000
-2.56809e-005,4.88441e-005,1.92383e-001,1.73340e-001,8.40820e-001,2.14024e+001,6.58537e+001,2.80488e+000
1.84634e-006,3.47448e-005,1.85059e-001,1.89453e-001,8.42285e-001,2.03049e+001,6.60976e+001,2.98780e+000
2.01419e-005,4.07874e-005,1.66016e-001,2.24121e-001,8.53516e-001,1.85976e+001,6.02439e+001,2.62195e+000
1.46029e-005,4.17945e-005,1.64063e-001,2.39746e-001,8.56445e-001,1.81098e+001,5.61585e+001,2.07317e+000
-2.18204e-006,4.17945e-005,1.72852e-001,2.51465e-001,8.70117e-001,1.56098e+001,4.67683e+001,6.09756e-001
-3.67590e-005,3.25628e-005,1.84570e-001,2.48535e-001,8.73535e-001,1.45122e+001,4.29878e+001,1.21951e-001
-8.47639e-005,3.44091e-005,2.00195e-001,2.33887e-001,8.57422e-001,1.22561e+001,3.71951e+001,-9.14634e-001
-6.59647e-005,3.91089e-005,2.17773e-001,2.13867e-001,8.29590e-001,1.17073e+001,3.53659e+001,-1.21951e+000
-3.55840e-005,3.59197e-005,2.22656e-001,1.98242e-001,8.11035e-001,1.07317e+001,3.07317e+001,-1.15854e+000
-9.90310e-006,3.94446e-005,2.23145e-001,1.74316e-001,7.96875e-001,1.04878e+001,2.84756e+001,-7.92683e-001
1.67849e-006,4.41444e-005,2.21680e-001,1.65527e-001,8.02734e-001,1.05488e+001,2.31707e+001,8.53659e-001
-1.84634e-006,3.30663e-005,2.08984e-001,1.45020e-001,8.42773e-001,9.81707e+000,2.00000e+001,1.15854e+000
-7.21752e-006,2.66880e-005,1.96289e-001,1.44531e-001,8.69629e-001,7.80488e+000,1.43293e+001,2.13415e+000
-5.20333e-006,2.31632e-005,1.57227e-001,1.43555e-001,9.18457e-001,6.03659e+000,1.11585e+001,2.50000e+000
3.18914e-006,1.79599e-005,1.42090e-001,1.41602e-001,9.25781e-001,3.96341e+000,6.82927e+000,3.10976e+000
7.88891e-006,6.37827e-006,1.28906e-001,1.44043e-001,9.04785e-001,2.98780e+000,5.36585e+000,3.47561e+000
9.23171e-006,-8.72816e-006,1.28418e-001,1.39160e-001,8.74512e-001,3.35366e+000,5.12195e+000,4.45122e+000
1.14137e-005,6.21042e-006,1.54297e-001,1.48926e-001,8.07617e-001,3.90244e+000,5.79268e+000,5.18293e+000
9.73526e-006,1.87991e-005,1.75781e-001,1.46484e-001,7.84180e-001,2.92683e+000,7.56098e+000,6.40244e+000
1.24208e-005,1.27565e-005,2.14844e-001,1.48438e-001,7.90039e-001,2.01220e+000,8.59756e+000,6.21951e+000
1.86313e-005,1.59457e-005,2.27051e-001,1.46973e-001,8.07129e-001,1.28049e+000,1.12195e+001,5.67073e+000
2.23239e-005,1.76242e-005,2.35840e-001,1.46973e-001,8.65234e-001,4.26829e-001,1.32927e+001,4.14634e+000
2.53452e-005,1.30922e-005,2.29492e-001,1.48438e-001,8.93555e-001,-1.21951e-001,1.34146e+001,3.35366e+000
2.19883e-005,2.04776e-005,2.21680e-001,1.52344e-001,9.23340e-001,5.48781e-001,1.43293e+001,1.70732e+000
6.37827e-006,4.86763e-005,2.20703e-001,1.50391e-001,9.31152e-001,1.28049e+000,1.52439e+001,9.14634e-001
-1.29244e-005,9.73526e-006,2.21191e-001,1.38672e-001,9.23340e-001,4.32927e+000,1.76829e+001,1.21951e-001
-2.29953e-005,-5.92508e-005,2.24121e-001,1.33789e-001,9.17969e-001,5.60976e+000,1.89024e+001,-6.09756e-002
-1.76242e-005,-8.71138e-005,2.50977e-001,1.20605e-001,9.13574e-001,7.07317e+000,2.19512e+001,0.00000e+000
-8.56031e-006,-8.74495e-005,2.75879e-001,1.14258e-001,9.34082e-001,6.58537e+000,2.29878e+001,-6.09756e-002
-1.02388e-005,-7.20073e-005,2.85156e-001,1.10840e-001,9.48730e-001,6.15854e+000,2.59756e+001,-9.14634e-001
-8.22461e-006,-6.56291e-005,2.85645e-001,1.08398e-001,9.67285e-001,5.67073e+000,2.70732e+001,-1.76829e+000
-1.24208e-005,-5.47189e-005,2.86133e-001,1.08887e-001,9.63379e-001,6.40244e+000,3.06098e+001,-2.50000e+000
-1.40993e-005,6.21042e-006,2.73926e-001,1.09863e-001,9.34082e-001,7.31707e+000,3.29268e+001,-2.98780e+000
-8.56031e-006,3.74304e-005,2.71484e-001,1.16211e-001,9.18945e-001,1.00000e+001,3.73171e+001,-3.23171e+000
-5.37118e-006,3.54162e-005,2.58301e-001,1.12793e-001,8.87207e-001,1.14634e+001,3.95732e+001,-3.29268e+000
-1.02388e-005,1.35958e-005,2.53906e-001,1.14258e-001,8.80371e-001,1.32927e+001,4.40244e+001,-3.17073e+000
-6.88182e-006,-2.04776e-005,2.47559e-001,1.16699e-001,8.94531e-001,1.30488e+001,4.55488e+001,-3.29268e+000
-7.55322e-006,-1.79599e-005,2.45117e-001,1.16699e-001,9.09668e-001,1.31098e+001,4.82317e+001,-3.41463e+000
-1.19173e-005,-7.88891e-006,2.52930e-001,1.22559e-001,9.36523e-001,1.34756e+001,5.00610e+001,-3.47561e+000
-1.22530e-005,-2.18204e-006,2.54395e-001,1.28418e-001,9.41895e-001,1.33537e+001,5.28049e+001,-3.90244e+000
-1.19173e-005,2.34989e-006,2.55371e-001,1.47461e-001,9.20410e-001,1.37195e+001,5.45122e+001,-4.20732e+000
-1.10781e-005,-5.03548e-007,2.53418e-001,1.52832e-001,8.99414e-001,1.35976e+001,5.68293e+001,-4.51220e+000
-1.27565e-005,-7.04967e-006,2.48047e-001,1.61621e-001,8.41309e-001,1.38415e+001,5.90854e+001,-4.20732e+000
-1.37636e-005,-2.71916e-005,2.43164e-001,1.68945e-001,8.12012e-001,1.42073e+001,5.96951e+001,-4.08537e+000
-1.37636e-005,-1.62814e-005,2.27539e-001,1.74316e-001,7.84180e-001,1.40854e+001,5.91463e+001,-3.47561e+000
-1.84634e-005,2.01419e-005,2.07520e-001,1.74316e-001,7.81738e-001,1.35976e+001,5.82927e+001,-3.10976e+000
-2.08133e-005,2.53452e-005,1.71387e-001,1.71875e-001,7.97363e-001,1.28659e+001,5.41463e+001,-2.74390e+000
-1.74563e-005,1.62814e-005,1.44531e-001,1.63086e-001,8.17871e-001,1.28659e+001,5.20122e+001,-2.37805e+000
-1.35958e-005,-1.42672e-005,1.04980e-001,1.54785e-001,8.55469e-001,1.23780e+001,4.58537e+001,-1.89024e+000
-1.89670e-005,-1.14137e-005,6.54297e-002,1.53320e-001,8.85742e-001,1.26829e+001,4.26829e+001,-2.01220e+000
-2.29953e-005,-1.76242e-005,4.83398e-002,1.52344e-001,8.97949e-001,1.18902e+001,3.54268e+001,-1.70732e+000
-1.93027e-005,-1.52743e-005,3.07617e-002,1.52344e-001,9.12109e-001,1.13415e+001,3.12195e+001,-1.52439e+000
-1.96384e-005,9.23171e-006,2.73438e-002,1.52832e-001,9.13574e-001,8.96342e+000,2.37195e+001,-2.01220e+000
-1.82956e-005,1.52743e-005,2.92969e-002,1.60645e-001,8.95508e-001,7.56098e+000,2.02439e+001,-2.01220e+000
-1.69528e-005,-3.39055e-005,3.12500e-002,1.62598e-001,8.85742e-001,5.48780e+000,1.31098e+001,-1.58537e+000
-1.25887e-005,-1.99741e-005,6.15234e-002,1.71387e-001,8.65723e-001,4.51220e+000,9.63415e+000,-1.58537e+000
-1.15816e-005,-1.27565e-005,7.81250e-002,1.74316e-001,8.62305e-001,2.01220e+000,3.23171e+000,-1.95122e+000
-1.09102e-005,-3.32342e-005,1.01074e-001,1.76758e-001,8.60840e-001,4.26829e-001,7.92683e-001,-2.19512e+000
-9.90310e-006,1.79599e-005,1.15234e-001,1.74805e-001,8.59375e-001,-1.89024e+000,-4.75610e+000,-2.80488e+000
-1.64492e-005,2.46738e-005,1.33301e-001,1.73828e-001,8.64258e-001,-2.92683e+000,-7.07317e+000,-3.35366e+000
-2.26596e-005,3.30663e-005,1.48926e-001,1.73828e-001,8.62793e-001,-3.53659e+000,-1.07927e+001,-4.02439e+000
-2.16526e-005,3.17235e-005,1.66992e-001,1.71387e-001,8.55957e-001,-3.35366e+000,-1.18293e+001,-4.26829e+000
-2.06455e-005,2.46738e-005,1.74316e-001,1.71875e-001,8.59863e-001,-4.02439e+000,-1.43902e+001,-4.14634e+000
-2.16526e-005,2.21561e-005,1.83594e-001,1.65527e-001,8.70605e-001,-4.63415e+000,-1.56707e+001,-4.45122e+000
-1.96384e-005,-3.52483e-006,1.77734e-001,1.64551e-001,8.77930e-001,-4.81707e+000,-1.58537e+001,-4.57317e+000
-1.56100e-005,-1.42672e-005,1.54297e-001,1.55273e-001,8.98926e-001,-4.81707e+000,-1.73780e+001,-4.32927e+000
-1.27565e-005,2.38346e-005,1.39160e-001,1.54785e-001,9.10156e-001,-5.06098e+000,-1.79268e+001,-4.32927e+000
-1.25887e-005,-1.12459e-005,1.14746e-001,1.53320e-001,9.39941e-001,-5.18293e+000,-1.87805e+001,-4.51220e+000
-1.05745e-005,-6.32792e-005,1.03027e-001,1.46484e-001,9.52148e-001,-5.24390e+000,-1.95122e+001,-4.32927e+000
-1.12459e-005,-7.13359e-005,9.47266e-002,1.40625e-001,9.72168e-001,-4.39024e+000,-1.98171e+001,-3.90244e+000
-1.51064e-005,1.09102e-005,9.37500e-002,1.34766e-001,9.85840e-001,-4.81707e+000,-2.02439e+001,-4.32927e+000
-1.82956e-005,9.76883e-005,1.00586e-001,1.35742e-001,9.94141e-001,-5.24390e+000,-2.00000e+001,-4.45122e+000
-1.71206e-005,1.01884e-004,1.18652e-001,1.32813e-001,1.00049e+000,-5.18293e+000,-1.99390e+001,-4.69512e+000
-2.08133e-005,8.64424e-005,1.29883e-001,1.33789e-001,1.00000e+000,-5.24390e+000,-1.96951e+001,-5.60976e+000
-2.36667e-005,6.16007e-005,1.51367e-001,1.35254e-001,9.84863e-001,-5.06098e+000,-1.90244e+001,-5.60976e+000
-2.03098e-005,-1.67849e-007,1.59180e-001,1.32324e-001,9.74609e-001,-4.02439e+000,-1.85366e+001,-6.15854e+000
-2.13169e-005,-6.69719e-005,1.75781e-001,1.32324e-001,9.53125e-001,-3.53659e+000,-1.80488e+001,-6.15854e+000
-2.26596e-005,-4.78370e-005,1.86035e-001,1.34766e-001,9.50684e-001,-3.10976e+000,-1.72561e+001,-6.09756e+000
-2.46738e-005,-1.15984e-004,2.01660e-001,1.39160e-001,9.53613e-001,-2.56098e+000,-1.62195e+001,-5.97561e+000
-1.27565e-005,-1.70871e-004,2.07031e-001,1.40137e-001,9.57520e-001,-3.23171e+000,-1.39634e+001,-6.95122e+000
-1.67849e-007,-1.86984e-004,2.11426e-001,1.38672e-001,9.55566e-001,-2.92683e+000,-1.15854e+001,-7.50000e+000
9.39956e-006,-2.35157e-004,2.06055e-001,1.36230e-001,9.46289e-001,-2.19512e+000,-6.82927e+000,-7.92683e+000
1.77920e-005,-2.05280e-004,2.10449e-001,1.34277e-001,9.18457e-001,-9.75610e-001,-9.75610e-001,-7.62195e+000
1.46029e-005,-1.14305e-004,2.22656e-001,1.35742e-001,9.03809e-001,-7.31707e-001,1.52439e+000,-6.82927e+000
-1.84634e-006,1.77920e-005,2.44141e-001,1.40137e-001,8.83301e-001,-2.43902e-001,5.85366e+000,-5.54878e+000
4.53193e-006,1.53918e-004,2.57324e-001,1.42578e-001,8.78418e-001,-6.70732e-001,7.13415e+000,-5.30488e+000
1.84634e-005,2.98268e-004,2.78320e-001,1.50391e-001,8.86230e-001,-1.09756e+000,7.56098e+000,-6.03659e+000
-2.23239e-005,1.73724e-004,2.75879e-001,1.53320e-001,8.92090e-001,-9.75610e-001,7.25610e+000,-6.64634e+000
-6.76432e-005,3.77661e-005,2.53418e-001,1.51855e-001,9.26270e-001,-9.14634e-001,6.03659e+000,-8.29268e+000
-8.56031e-005,4.64942e-005,2.38770e-001,1.50391e-001,9.49219e-001,-4.26829e-001,5.06098e+000,-8.90244e+000
-4.91798e-005,2.21561e-005,2.07031e-001,1.48438e-001,9.74609e-001,7.92683e-001,4.57317e+000,-8.78049e+000
-2.73594e-005,-1.51064e-005,1.68945e-001,1.48438e-001,9.84863e-001,1.58537e+000,4.75610e+000,-8.59756e+000
-1.94705e-005,4.53193e-006,1.50879e-001,1.46484e-001,9.89746e-001,3.29268e+000,4.69512e+000,-7.31707e+000
-1.19173e-005,2.16526e-005,1.20117e-001,1.45020e-001,9.84375e-001,4.32927e+000,4.93902e+000,-6.46341e+000
-6.04257e-006,-2.03098e-005,1.11328e-001,1.43555e-001,9.73145e-001,5.67073e+000,6.15854e+000,-5.12195e+000
-8.89601e-006,-3.84375e-005,9.61914e-002,1.51855e-001,9.56055e-001,6.40244e+000,6.82927e+000,-4.87805e+000
-1.67849e-005,-2.76951e-005,9.17969e-002,1.53320e-001,9.48242e-001,7.19512e+000,6.28049e+000,-4.39024e+000
-1.86313e-005,-6.54612e-006,8.20313e-002,1.59668e-001,9.33594e-001,6.89024e+000,5.48780e+000,-4.14634e+000
-1.84634e-005,1.29244e-005,7.47070e-002,1.63574e-001,9.31641e-001,6.52439e+000,2.68293e+000,-4.87805e+000
-1.40993e-005,3.34020e-005,6.25000e-002,1.69922e-001,9.31152e-001,6.21951e+000,1.21951e-001,-5.00000e+000
-1.67849e-005,5.77401e-005,5.41992e-002,1.71875e-001,9.29199e-001,5.73171e+000,-5.18293e+000,-5.85366e+000
-2.41703e-005,3.70947e-005,4.78516e-002,1.73828e-001,9.36523e-001,5.73171e+000,-8.17073e+000,-5.73171e+000
-2.65202e-005,-3.35698e-007,4.54102e-002,1.71875e-001,9.37500e-001,5.36585e+000,-1.48780e+001,-5.67073e+000
-2.29953e-005,-7.55322e-006,3.27148e-002,1.63086e-001,9.48242e-001,5.12195e+000,-2.07927e+001,-5.48780e+000
-2.23239e-005,-1.84634e-006,2.92969e-002,1.60156e-001,9.57031e-001,5.12195e+000,-2.38415e+001,-5.12195e+000
-2.18204e-005,3.69268e-006,2.63672e-002,1.49902e-001,9.77539e-001,4.75610e+000,-2.73171e+001,-4.26829e+000
-1.77920e-005,2.83665e-005,3.27148e-002,1.43555e-001,9.84375e-001,4.75610e+000,-2.89634e+001,-3.41463e+000
-1.66171e-005,5.80758e-005,4.93164e-002,1.29395e-001,9.86816e-001,5.36585e+000,-3.01829e+001,-2.43902e+000
-1.51064e-006,3.74304e-005,6.64063e-002,1.20117e-001,9.79492e-001,5.24390e+000,-3.07927e+001,-1.82927e+000
1.17494e-005,-1.19173e-005,9.86328e-002,1.17676e-001,9.50195e-001,5.48780e+000,-3.01220e+001,-1.70732e+000
2.26596e-005,-2.16526e-005,1.14746e-001,1.14746e-001,9.35059e-001,6.03659e+000,-3.00000e+001,-1.76829e+000
1.46029e-005,4.26337e-005,1.47461e-001,1.19141e-001,9.08691e-001,5.73171e+000,-2.86585e+001,-1.89024e+000
-1.04067e-005,1.43511e-004,1.84570e-001,1.33301e-001,8.98926e-001,5.48780e+000,-2.81707e+001,-2.13415e+000
-9.56741e-006,1.39315e-004,1.97754e-001,1.39160e-001,8.92090e-001,4.81707e+000,-2.60976e+001,-2.74390e+000
5.27047e-005,8.67781e-005,2.28516e-001,1.58203e-001,8.69629e-001,3.90244e+000,-2.50610e+001,-3.23171e+000
1.04570e-004,-2.18204e-006,2.38281e-001,1.65039e-001,8.52051e-001,3.47561e+000,-2.18902e+001,-4.02439e+000
7.83856e-005,-9.83597e-005,2.65625e-001,1.72363e-001,8.19336e-001,3.53659e+000,-1.92683e+001,-4.02439e+000
-3.69268e-006,-2.12665e-004,2.82715e-001,1.77246e-001,8.09570e-001,4.26829e+000,-1.39024e+001,-4.39024e+000
-3.54162e-005,-2.22400e-004,3.04688e-001,1.87988e-001,7.95410e-001,4.57317e+000,-1.10976e+001,-4.08537e+000
-1.25887e-005,-1.00877e-004,3.12500e-001,1.95313e-001,7.97852e-001,4.02439e+000,-6.28049e+000,-4.45122e+000
-6.19364e-005,-2.85344e-005,3.17871e-001,2.03613e-001,8.02246e-001,3.47561e+000,-4.08537e+000,-4.81707e+000
-1.18669e-004,-8.37568e-005,3.13477e-001,2.01172e-001,8.15918e-001,2.43902e+000,-1.03659e+000,-5.48780e+000
-1.27398e-004,-1.00710e-004,2.79785e-001,2.01660e-001,8.38867e-001,1.89024e+000,-3.65854e-001,-6.28049e+000
-1.03899e-004,-4.75013e-005,2.59766e-001,1.92871e-001,8.47656e-001,1.89024e+000,3.04878e-001,-6.89024e+000
-6.47898e-005,-2.87022e-005,2.11426e-001,1.78711e-001,8.72070e-001,3.23171e+000,0.00000e+000,-7.07317e+000
-6.94896e-005,-2.19883e-005,1.94336e-001,1.71875e-001,8.91602e-001,3.78049e+000,-7.31707e-001,-7.92683e+000
-7.98962e-005,-3.54162e-005,1.46484e-001,1.63086e-001,9.23340e-001,3.71951e+000,-2.43902e+000,-7.92683e+000
-4.78370e-005,-4.31373e-005,1.23047e-001,1.63086e-001,9.25781e-001,3.41463e+000,-3.90244e+000,-8.23171e+000
3.35698e-006,-3.72625e-005,7.51953e-002,1.58203e-001,9.02344e-001,1.58537e+000,-8.90244e+000,-8.47561e+000
3.00450e-005,-1.32601e-005,6.25000e-002,1.51855e-001,8.88672e-001,9.14634e-001,-1.21341e+001,-8.17073e+000
6.54612e-006,1.04067e-005,6.54297e-002,1.45020e-001,8.38379e-001,7.92683e-001,-1.73780e+001,-7.98780e+000
-1.29244e-005,1.69528e-005,7.42188e-002,1.39160e-001,8.12988e-001,6.09756e-001,-1.99390e+001,-8.53659e+000
-2.56809e-005,1.93027e-005,9.32617e-002,1.41113e-001,7.70508e-001,-6.70732e-001,-2.43902e+001,-9.02439e+000
-1.27565e-005,1.99741e-005,1.03516e-001,1.56250e-001,7.49023e-001,-1.82927e+000,-2.70732e+001,-9.51220e+000
3.18914e-006,2.26596e-005,1.01074e-001,1.66504e-001,7.49512e-001,-4.26829e+000,-3.42683e+001,-1.03659e+001
1.22530e-005,2.98772e-005,7.95898e-002,1.91406e-001,7.71973e-001,-5.24390e+000,-3.90244e+001,-1.10976e+001
1.12459e-005,2.40024e-005,7.17773e-002,2.02148e-001,7.88574e-001,-6.95122e+000,-4.93293e+001,-1.19512e+001
1.09102e-005,1.66171e-005,3.71094e-002,2.08496e-001,8.27637e-001,-8.53659e+000,-5.46341e+001,-1.26220e+001
7.88891e-006,2.87022e-005,2.00195e-002,2.04102e-001,8.49121e-001,-1.04268e+001,-6.42683e+001,-1.28049e+001
-1.51064e-006,2.95415e-005,-1.31836e-002,1.88477e-001,8.85254e-001,-1.12195e+001,-6.84756e+001,-1.25610e+001
-2.46738e-005,2.76951e-005,-1.66016e-002,1.79199e-001,8.97461e-001,-1.17683e+001,-7.46951e+001,-1.18293e+001
-3.97803e-005,2.46738e-005,-9.76563e-004,1.54297e-001,9.21387e-001,-1.17073e+001,-7.66463e+001,-1.09756e+001
-1.42672e-005,1.89670e-005,1.36719e-002,1.45508e-001,9.25293e-001,-1.23171e+001,-8.01220e+001,-8.96342e+000
5.70687e-006,1.72885e-005,5.71289e-002,1.27441e-001,9.20410e-001,-1.28049e+001,-8.14024e+001,-8.04878e+000
1.84634e-006,9.23171e-006,8.25195e-002,1.17188e-001,9.08691e-001,-1.37195e+001,-8.35366e+001,-6.76829e+000
-4.19623e-006,2.51774e-006,1.44531e-001,1.07910e-001,8.82324e-001,-1.42073e+001,-8.31098e+001,-6.21951e+000
-8.56031e-006,9.90310e-006,1.76270e-001,1.01563e-001,8.66699e-001,-1.42073e+001,-8.21341e+001,-6.52439e+000
-2.51774e-006,3.07164e-005,2.28516e-001,9.86328e-002,8.47168e-001,-1.32317e+001,-7.85366e+001,-7.01220e+000
2.18204e-006,4.21302e-005,2.49512e-001,1.03027e-001,8.40332e-001,-1.32317e+001,-7.65854e+001,-7.19512e+000
5.87472e-006,5.08583e-005,2.78320e-001,1.10840e-001,8.33008e-001,-1.25610e+001,-7.23781e+001,-7.98780e+000
6.54612e-006,2.13169e-005,2.94922e-001,1.15723e-001,8.33984e-001,-1.25610e+001,-7.05488e+001,-8.23171e+000
5.20333e-006,6.88182e-006,3.11523e-001,1.29883e-001,8.44238e-001,-1.25610e+001,-6.70732e+001,-8.10976e+000
3.18914e-006,3.40734e-005,3.16895e-001,1.35254e-001,8.59375e-001,-1.23780e+001,-6.54268e+001,-8.04878e+000
-5.20333e-006,3.60876e-005,3.19336e-001,1.45020e-001,9.05273e-001,-1.15854e+001,-6.17683e+001,-7.98780e+000
-3.02129e-006,5.03548e-007,3.14941e-001,1.56738e-001,9.53613e-001,-1.14634e+001,-5.97561e+001,-7.98780e+000
-2.85344e-006,-5.58938e-005,3.07617e-001,1.59668e-001,9.72168e-001,-1.20732e+001,-5.50000e+001,-8.35366e+000
-1.09102e-005,-3.23949e-005,2.73438e-001,1.56250e-001,9.92188e-001,-1.17683e+001,-5.21951e+001,-8.23171e+000
-8.72816e-006,8.89601e-006,2.55371e-001,1.50391e-001,9.89258e-001,-1.06707e+001,-4.65244e+001,-8.10976e+000
-6.88182e-006,-5.00191e-005,2.29004e-001,1.38672e-001,9.58984e-001,-8.90244e+000,-4.35976e+001,-8.29268e+000
-1.84634e-006,-6.19364e-005,2.21680e-001,1.28418e-001,9.43848e-001,-7.07317e+000,-3.73780e+001,-7.37805e+000
-6.71397e-006,-4.21302e-005,2.25586e-001,1.15234e-001,9.16992e-001,-6.09756e+000,-3.42683e+001,-6.52439e+000
-9.73526e-006,-2.46738e-005,2.29492e-001,1.18652e-001,9.06738e-001,-4.75610e+000,-2.98171e+001,-5.42683e+000
3.35698e-007,1.05745e-005,2.46582e-001,1.18652e-001,8.98438e-001,-4.45122e+000,-2.81098e+001,-4.63415e+000
-1.20851e-005,-3.87732e-005,2.54395e-001,1.24023e-001,8.91602e-001,-4.75610e+000,-2.52439e+001,-3.84146e+000
-1.67849e-005,-1.00710e-004,2.75879e-001,1.32813e-001,8.74023e-001,-4.51220e+000,-2.37195e+001,-4.08537e+000
-1.40993e-005,-7.50286e-005,2.83691e-001,1.38672e-001,8.60840e-001,-5.12195e+000,-2.12805e+001,-3.90244e+000
-1.76242e-005,-3.25628e-005,2.98340e-001,1.46973e-001,8.18848e-001,-4.75610e+000,-1.88415e+001,-3.78049e+000
-2.93736e-005,-1.39315e-005,3.02246e-001,1.53809e-001,7.99805e-001,-4.93902e+000,-1.75000e+001,-4.20732e+000
-4.06195e-005,-4.19623e-006,3.02734e-001,1.69434e-001,7.74414e-001,-4.87805e+000,-1.62195e+001,-4.39024e+000
-3.74304e-005,1.12459e-005,2.95898e-001,1.77246e-001,7.73438e-001,-5.30488e+000,-1.59146e+001,-4.63415e+000
-3.47448e-005,1.40993e-005,2.78809e-001,1.88965e-001,7.91016e-001,-6.21951e+000,-1.62805e+001,-5.36585e+000
-3.54162e-005,1.69528e-005,2.64648e-001,1.91406e-001,8.06641e-001,-6.82927e+000,-1.66463e+001,-5.60976e+000
-3.22271e-005,1.05745e-005,2.26074e-001,1.84082e-001,8.52539e-001,-7.56098e+000,-1.80488e+001,-5.79268e+000
-2.90379e-005,4.19623e-006,2.11426e-001,1.80176e-001,8.78906e-001,-7.19512e+000,-1.82317e+001,-5.60976e+000
-2.38346e-005,1.12459e-005,1.80176e-001,1.60156e-001,9.17969e-001,-6.76829e+000,-1.91463e+001,-5.24390e+000
-1.62814e-005,2.76951e-005,1.58203e-001,1.35254e-001,9.36523e-001,-5.91463e+000,-1.92683e+001,-5.00000e+000
-1.22530e-005,1.05745e-005,1.52344e-001,1.25000e-001,9.39453e-001,-4.45122e+000,-1.84146e+001,-3.71951e+000
-1.22530e-005,-1.67849e-007,1.52832e-001,1.11328e-001,9.41895e-001,-3.84146e+000,-1.76829e+001,-2.74390e+000
-1.57778e-005,1.86313e-005,1.59668e-001,9.86328e-002,9.37500e-001,-2.37805e+000,-1.51829e+001,-1.82927e+000
-2.16526e-005,8.57710e-005,1.81641e-001,8.74023e-002,9.15527e-001,-1.76829e+000,-1.37195e+001,-1.21951e+000
-2.63523e-005,1.46700e-004,1.96777e-001,8.30078e-002,9.03320e-001,-7.92683e-001,-1.12805e+001,-3.04878e-001
-2.76951e-005,1.63653e-004,2.29492e-001,8.34961e-002,8.70605e-001,-3.65854e-001,-1.00610e+001,6.09756e-002
-2.53452e-005,1.26390e-004,2.48535e-001,8.64258e-002,8.50586e-001,1.82927e-001,-8.23171e+000,3.04878e-001
-9.23171e-006,4.44800e-005,2.76855e-001,9.57031e-002,8.25195e-001,4.87805e-001,-7.50000e+000,6.09756e-002
9.23171e-006,-7.53643e-005,2.83691e-001,1.07422e-001,8.15918e-001,9.75610e-001,-5.54878e+000,-8.53659e-001
-1.29244e-005,-1.54589e-004,2.87109e-001,1.21582e-001,8.21289e-001,1.15854e+000,-4.39024e+000,-1.58537e+000
-1.56100e-005,-3.84375e-005,2.85156e-001,1.27930e-001,8.24707e-001,7.92683e-001,-2.80488e+000,-2.50000e+000
4.53193e-006,-2.29953e-005,2.78320e-001,1.42578e-001,8.30078e-001,1.46341e+000,-1.76829e+000,-3.65854e+000
5.20333e-006,2.34989e-005,2.72949e-001,1.52344e-001,8.29102e-001,1.58537e+000,-1.64634e+000,-4.08537e+000
-4.53193e-006,4.68299e-005,2.60742e-001,1.66992e-001,8.19824e-001,2.43902e-001,-1.95122e+000,-4.02439e+000
-1.89670e-005,-2.48249e-004,2.49512e-001,1.70898e-001,8.14453e-001,-4.26829e-001,-1.82927e+000,-4.14634e+000
2.51774e-006,-3.59701e-004,2.38281e-001,1.77246e-001,8.11035e-001,-1.09756e+000,-3.29268e+000,-4.26829e+000
4.33051e-005,-2.79133e-004,2.31445e-001,1.79688e-001,8.13477e-001,-1.46341e+000,-4.51220e+000,-4.45122e+000
1.56100e-005,-9.24849e-005,2.19238e-001,1.70410e-001,8.38379e-001,-1.64634e+000,-6.28049e+000,-5.24390e+000
-2.98772e-005,2.80308e-005,2.11914e-001,1.66504e-001,8.50586e-001,-2.19512e+000,-6.46341e+000,-5.42683e+000
-5.01869e-005,9.78561e-005,2.08496e-001,1.51855e-001,8.79883e-001,-1.34146e+000,-6.09756e+000,-5.30488e+000
-5.48867e-005,9.19814e-005,2.27051e-001,1.32813e-001,8.94531e-001,-2.43902e-001,-4.81707e+000,-5.00000e+000
-3.40734e-005,3.13878e-005,2.36328e-001,1.23535e-001,8.98926e-001,9.75610e-001,-2.43902e+000,-4.20732e+000
-1.96384e-005,3.54162e-005,2.56348e-001,1.09863e-001,9.10645e-001,1.70732e+000,-9.14634e-001,-4.14634e+000
-1.82956e-005,2.55131e-005,2.65137e-001,1.00098e-001,9.12109e-001,2.25610e+000,2.31707e+000,-4.02439e+000
-1.56100e-005,1.14137e-005,2.84668e-001,9.42383e-002,9.14063e-001,2.80488e+000,3.41463e+000,-3.90244e+000
-1.35958e-005,1.25887e-005,2.90039e-001,9.66797e-002,9.10156e-001,4.08537e+000,5.67073e+000,-4.08537e+000
-1.99741e-005,2.45060e-005,2.97363e-001,1.00586e-001,9.03320e-001,4.93902e+000,6.64634e+000,-4.14634e+000
-1.89670e-005,3.34020e-005,2.97852e-001,1.00098e-001,9.05762e-001,5.42683e+000,6.76829e+000,-5.18293e+000
-2.16526e-005,4.51514e-005,2.76855e-001,1.13770e-001,8.97461e-001,5.85366e+000,6.70732e+000,-5.36585e+000
-2.06455e-005,4.83406e-005,2.63184e-001,1.17676e-001,8.93555e-001,6.09756e+000,5.79268e+000,-5.97561e+000
-1.99741e-005,2.98772e-005,2.26563e-001,1.29883e-001,8.95996e-001,5.85366e+000,4.87805e+000,-6.15854e+000
-2.53452e-005,2.87022e-005,2.10449e-001,1.36230e-001,9.01855e-001,6.15854e+000,3.65854e+000,-6.15854e+000
-3.50805e-005,3.77661e-005,1.74805e-001,1.48438e-001,9.15039e-001,6.09756e+000,3.35366e+000,-5.42683e+000
-3.37377e-005,3.00450e-005,1.63574e-001,1.51367e-001,9.23828e-001,6.21951e+000,3.29268e+000,-5.06098e+000
-2.55131e-005,1.39315e-005,1.50879e-001,1.52832e-001,9.27246e-001,5.97561e+000,3.47561e+000,-4.14634e+000
7.72107e-006,9.23171e-006,1.50391e-001,1.55273e-001,9.21387e-001,6.09756e+000,3.78049e+000,-3.71951e+000
3.17235e-005,7.88891e-006,1.67969e-001,1.53809e-001,8.86719e-001,5.48780e+000,4.08537e+000,-2.19512e+000
-4.53193e-006,4.01160e-005,1.86035e-001,1.51855e-001,8.70605e-001,5.30488e+000,4.51220e+000,-1.95122e+000
-9.90310e-006,8.25818e-005,2.20703e-001,1.54785e-001,8.25684e-001,3.47561e+000,3.59756e+000,-1.09756e+000
3.13878e-005,3.30663e-005,2.36816e-001,1.53320e-001,8.14453e-001,2.86585e+000,3.04878e+000,-9.14634e-001
1.01045e-004,-1.22530e-005,2.70508e-001,1.56738e-001,7.92480e-001,1.64634e+000,2.25610e+000,-9.75610e-001
1.06920e-004,-4.21302e-005,2.80273e-001,1.51367e-001,7.92480e-001,1.21951e+000,1.76829e+000,-9.75610e-001
-2.56809e-005,-5.72366e-005,2.81250e-001,1.47461e-001,7.94434e-001,1.34146e+000,9.14634e-001,-1.52439e+000
-1.06920e-004,-4.14588e-005,2.74902e-001,1.36719e-001,8.11035e-001,1.70732e+000,6.70732e-001,-1.70732e+000
-1.21355e-004,-1.72885e-005,2.63672e-001,1.34277e-001,8.24219e-001,2.74390e+000,8.53659e-001,-2.13415e+000
-8.79530e-005,-1.09102e-005,2.23633e-001,1.24023e-001,8.40332e-001,2.56098e+000,4.26829e-001,-2.25610e+000
-7.93927e-005,-4.19623e-006,1.99219e-001,1.21582e-001,8.43750e-001,3.35366e+000,-3.65854e-001,-1.82927e+000
-9.97024e-005,-2.16526e-005,1.61621e-001,1.17188e-001,8.34961e-001,3.29268e+000,-1.09756e+000,-1.46341e+000
-6.79789e-005,-2.40024e-005,1.46484e-001,1.21094e-001,8.28125e-001,3.65854e+000,-2.50000e+000,2.43902e-001
-4.19623e-006,-2.71916e-005,1.27441e-001,1.29883e-001,8.21289e-001,3.23171e+000,-3.53659e+000,1.28049e+000
-1.86313e-005,-2.80308e-005,1.27930e-001,1.32324e-001,8.19824e-001,2.50000e+000,-6.21951e+000,2.86585e+000
-3.87732e-005,-4.95155e-005,1.33301e-001,1.41602e-001,8.24707e-001,2.07317e+000,-7.68293e+000,3.17073e+000
-2.80308e-005,-5.15297e-005,1.42090e-001,1.48438e-001,8.29102e-001,7.31707e-001,-1.12805e+001,3.96341e+000
-1.44350e-005,2.53452e-005,1.63086e-001,1.52832e-001,8.41797e-001,-9.75610e-001,-1.59146e+001,3.71951e+000
-6.21042e-006,1.76242e-005,1.77734e-001,1.52832e-001,8.47168e-001,-1.15854e+000,-1.79268e+001,3.47561e+000
3.35698e-007,-1.82956e-005,2.05078e-001,1.54785e-001,8.68164e-001,-2.07317e+000,-2.30488e+001,2.25610e+000
-2.01419e-006,-3.97803e-005,2.16797e-001,1.52344e-001,8.89648e-001,-2.43902e+000,-2.56707e+001,1.52439e+000
-1.51064e-006,-3.18914e-005,2.30957e-001,1.52344e-001,9.37012e-001,-2.62195e+000,-3.04268e+001,0.00000e+000
4.53193e-006,-1.22530e-005,2.30957e-001,1.50391e-001,9.69727e-001,-3.10976e+000,-3.27439e+001,-1.21951e+000
8.72816e-006,1.34279e-006,2.17285e-001,1.45020e-001,1.02441e+000,-4.32927e+000,-3.52439e+001,-2.80488e+000
7.72107e-006,1.99741e-005,1.99707e-001,1.41113e-001,1.03027e+000,-4.63415e+000,-3.56098e+001,-3.04878e+000
5.03548e-007,7.48608e-005,1.66016e-001,1.33789e-001,1.00342e+000,-5.06098e+000,-3.50610e+001,-3.17073e+000
-4.69978e-006,9.91989e-005,1.49902e-001,1.31836e-001,9.29199e-001,-4.32927e+000,-3.43902e+001,-2.74390e+000
-5.03548e-006,5.60616e-005,1.51855e-001,1.29883e-001,8.90137e-001,-2.86585e+000,-3.20732e+001,-1.40244e+000
-6.54612e-006,3.47448e-005,1.66504e-001,1.35742e-001,8.30566e-001,-2.13415e+000,-3.05488e+001,-6.09756e-001
-5.53903e-006,1.99741e-005,1.79688e-001,1.42090e-001,8.21777e-001,-1.89024e+000,-2.87195e+001,3.04878e-001
-5.53903e-006,-7.55322e-006,2.10938e-001,1.61133e-001,8.24219e-001,-2.56098e+000,-2.73780e+001,5.48781e-001
-2.18204e-006,-4.04517e-005,2.31445e-001,1.64551e-001,8.43750e-001,-5.24390e+000,-2.45732e+001,4.87805e-001
-8.39246e-007,-3.69268e-005,2.58789e-001,1.66504e-001,8.89160e-001,-5.85366e+000,-2.17683e+001,1.21951e-001
2.51774e-006,2.56809e-005,2.76367e-001,1.59668e-001,9.03320e-001,-5.60976e+000,-1.40854e+001,-7.92683e-001
6.37827e-006,5.92508e-005,3.12500e-001,1.40625e-001,9.20898e-001,-3.90244e+000,-9.20732e+000,-9.75610e-001
5.70687e-006,3.07164e-005,3.27148e-001,1.29883e-001,9.27734e-001,0.00000e+000,9.75610e-001,-1.52439e+000
9.90310e-006,6.04257e-006,3.62793e-001,1.06445e-001,9.33594e-001,2.31707e+000,5.60976e+000,-1.46341e+000
9.23171e-006,-1.22530e-005,3.74512e-001,9.91211e-002,9.33594e-001,5.18293e+000,1.39024e+001,-1.70732e+000
8.56031e-006,-3.07164e-005,3.86230e-001,8.59375e-002,9.32617e-001,6.82927e+000,1.96341e+001,-9.75610e-001
2.68559e-006,-7.60357e-005,3.84277e-001,8.30078e-002,9.34570e-001,7.74390e+000,2.20122e+001,-9.14634e-001
-1.67849e-006,-9.04707e-005,3.78418e-001,7.51953e-002,9.23340e-001,9.26829e+000,2.53049e+001,-4.26829e-001
-8.22461e-006,-6.73075e-005,3.67188e-001,7.61719e-002,9.18457e-001,1.04878e+001,2.69512e+001,-5.48781e-001
-1.62814e-005,-1.99741e-005,3.50098e-001,7.61719e-002,9.10156e-001,1.19512e+001,2.90244e+001,4.87805e-001
-2.97093e-005,-8.22461e-006,3.36426e-001,8.15430e-002,9.06738e-001,1.23171e+001,3.00000e+001,6.09756e-001
-2.97093e-005,-2.34989e-006,3.10059e-001,9.96094e-002,8.92090e-001,1.19512e+001,3.06707e+001,1.64634e+000
-2.33310e-005,1.52743e-005,2.92480e-001,1.08887e-001,8.84277e-001,1.15244e+001,3.07317e+001,2.07317e+000
-3.32342e-005,1.29244e-005,2.66113e-001,1.30371e-001,8.56445e-001,9.45122e+000,2.92683e+001,2.98780e+000
-3.70947e-005,1.46029e-005,2.26074e-001,1.43555e-001,8.22754e-001,8.65854e+000,2.84756e+001,2.98780e+000
-3.17235e-005,-1.71206e-005,2.06543e-001,1.44043e-001,8.05176e-001,8.04878e+000,2.65244e+001,3.29268e+000
-2.53452e-005,-5.22011e-005,1.67969e-001,1.53809e-001,7.83203e-001,8.17073e+000,2.52439e+001,3.78049e+000
-3.03807e-005,-3.77661e-005,1.51855e-001,1.61133e-001,7.82227e-001,8.35366e+000,2.25610e+001,5.24390e+000
-3.87732e-005,-2.60166e-005,1.22070e-001,1.67480e-001,7.97363e-001,8.04878e+000,2.11585e+001,5.97561e+000
-4.07874e-005,-1.22530e-005,1.03516e-001,1.71387e-001,8.15918e-001,6.64634e+000,1.66463e+001,7.07317e+000
-3.67590e-005,1.12459e-005,7.66602e-002,1.79199e-001,8.58887e-001,5.73171e+000,1.39024e+001,7.43902e+000
-2.21561e-005,2.16526e-005,6.15234e-002,1.77734e-001,8.78418e-001,4.69512e+000,8.10976e+000,8.53659e+000
-7.21752e-006,-4.86763e-006,3.85742e-002,1.72852e-001,9.17480e-001,4.45122e+000,4.81707e+000,9.26829e+000
6.54612e-006,-5.13619e-005,4.15039e-002,1.60156e-001,9.30176e-001,5.00000e+000,-2.37805e+000,1.00000e+001
1.77920e-005,-3.87732e-005,5.46875e-002,1.39160e-001,9.61426e-001,5.73171e+000,-5.91463e+000,1.10976e+001
1.39315e-005,-1.10781e-005,6.73828e-002,1.32324e-001,9.75098e-001,6.21951e+000,-1.16463e+001,1.17073e+001
3.84375e-005,6.54612e-006,9.86328e-002,1.17188e-001,9.98047e-001,7.01220e+000,-1.59756e+001,1.17073e+001
2.31632e-005,3.86053e-006,1.09375e-001,1.13281e-001,1.00000e+000,6.95122e+000,-1.76829e+001,1.17683e+001
-2.29953e-005,-1.84634e-006,1.37695e-001,1.10840e-001,9.65332e-001,6.40244e+000,-2.09146e+001,1.20732e+001
-2.97093e-005,-8.39246e-007,1.51855e-001,1.09863e-001,9.33594e-001,6.28049e+000,-2.12805e+001,1.23780e+001
-1.99741e-005,2.31632e-005,1.80664e-001,1.03027e-001,8.93066e-001,8.23171e+000,-2.00610e+001,1.24390e+001
-9.90310e-006,4.93477e-005,2.01660e-001,1.01563e-001,8.81836e-001,1.04268e+001,-1.89024e+001,1.26220e+001
-1.61135e-005,5.55581e-005,2.23633e-001,1.05469e-001,8.77441e-001,1.42683e+001,-1.65244e+001,1.28049e+001
-1.30922e-005,4.68299e-005,2.25586e-001,1.15234e-001,8.99414e-001,1.43293e+001,-1.64634e+001,1.31098e+001
-9.56741e-006,1.17494e-005,2.24121e-001,1.50391e-001,9.96094e-001,1.13415e+001,-1.75610e+001,1.26220e+001
-2.45060e-005,1.57778e-005,2.15332e-001,1.55762e-001,1.15527e+000,9.75610e+000,-1.86585e+001,1.20122e+001
-3.70947e-005,4.24659e-005,2.20215e-001,1.56250e-001,1.20850e+000,8.90244e+000,-2.21951e+001,1.05488e+001
-3.77661e-005,4.86763e-005,2.75391e-001,1.26953e-001,1.26318e+000,9.26829e+000,-2.33537e+001,9.69512e+000
-3.64233e-005,1.98062e-005,3.03223e-001,1.12305e-001,1.26660e+000,1.20732e+001,-2.38415e+001,7.62195e+000
-2.93736e-005,-1.35958e-005,3.57910e-001,8.15430e-002,1.20313e+000,1.46341e+001,-2.33537e+001,6.28049e+000
-2.23239e-005,-3.87732e-005,3.83789e-001,7.22656e-002,1.14453e+000,1.84146e+001,-2.07927e+001,5.42683e+000
-3.00450e-005,-5.62295e-005,4.38477e-001,8.64258e-002,1.02100e+000,1.87805e+001,-1.69512e+001,5.24390e+000
-2.93736e-005,-2.36667e-005,4.50684e-001,9.76563e-002,9.64844e-001,1.84146e+001,-5.97561e+000,4.63415e+000
-2.76951e-005,-5.22011e-005,4.82910e-001,1.15723e-001,8.89160e-001,1.78049e+001,1.09756e+000,5.12195e+000
-2.16526e-005,-9.85275e-005,4.89258e-001,1.25488e-001,8.70117e-001,1.60366e+001,1.71951e+001,6.21951e+000
-1.71206e-005,-1.28573e-004,4.76074e-001,1.41602e-001,8.58398e-001,1.50610e+001,2.53659e+001,6.76829e+000
-1.32601e-005,-8.24140e-005,4.56055e-001,1.53809e-001,8.65234e-001,1.28659e+001,3.90854e+001,7.98780e+000
-9.90310e-006,-2.43381e-005,3.91602e-001,1.74316e-001,8.76953e-001,1.15854e+001,4.73171e+001,8.41463e+000
-7.21752e-006,-3.50805e-005,3.54492e-001,1.81152e-001,8.80859e-001,1.16463e+001,4.95122e+001,7.80488e+000
-7.72107e-006,-2.61845e-005,2.88574e-001,2.03613e-001,8.70117e-001,1.15854e+001,4.85366e+001,7.01220e+000
-7.88891e-006,5.53903e-006,2.61719e-001,2.19238e-001,8.56934e-001,1.12805e+001,4.65244e+001,6.15854e+000
-7.21752e-006,-9.56741e-006,2.22656e-001,2.30469e-001,8.18848e-001,8.84146e+000,4.03659e+001,3.78049e+000
-3.35698e-006,1.87991e-005,2.03125e-001,2.35352e-001,8.04688e-001,6.46341e+000,3.66463e+001,2.68293e+000
-1.67849e-007,8.74495e-005,1.78711e-001,2.17773e-001,7.90039e-001,3.35366e+000,2.86585e+001,9.75610e-001
-5.87472e-006,7.93927e-005,1.74805e-001,1.99219e-001,7.94434e-001,2.80488e+000,2.43902e+001,-6.09756e-002
-1.82956e-005,5.42153e-005,1.73340e-001,1.54297e-001,8.28125e-001,3.53659e+000,1.64634e+001,-1.58537e+000
-1.59457e-005,5.82437e-005,1.63086e-001,1.08887e-001,9.06738e-001,3.78049e+000,1.29878e+001,-2.25610e+000
-1.37636e-005,2.36667e-005,1.56738e-001,9.42383e-002,9.51172e-001,3.90244e+000,6.76829e+000,-2.25610e+000
-1.35958e-005,-3.37377e-005,1.50879e-001,7.66602e-002,1.04053e+000,3.47561e+000,4.75610e+000,-1.82927e+000
-2.18204e-006,1.51064e-005,1.58691e-001,7.17773e-002,1.06738e+000,3.41463e+000,2.92683e+000,-5.48781e-001
1.91348e-005,3.52483e-006,1.88477e-001,6.10352e-002,1.06201e+000,4.02439e+000,3.35366e+000,0.00000e+000
2.13169e-005,-4.78370e-005,2.18262e-001,6.00586e-002,1.02783e+000,6.52439e+000,6.76829e+000,9.75610e-001
-8.89601e-006,-5.84115e-005,2.77832e-001,5.76172e-002,9.53125e-001,8.41463e+000,1.00000e+001,1.34146e+000
-2.87022e-005,-6.09293e-005,3.07617e-001,5.95703e-002,9.19434e-001,1.13415e+001,1.68902e+001,1.70732e+000
-2.63523e-005,-2.73594e-005,3.58398e-001,6.64063e-002,8.89648e-001,1.22561e+001,2.06707e+001,1.95122e+000
3.37377e-005,2.90379e-005,3.74023e-001,7.51953e-002,8.92578e-001,1.32927e+001,2.70122e+001,1.21951e+000
3.44091e-005,4.01160e-005,3.85254e-001,8.78906e-002,9.42871e-001,1.35976e+001,2.97561e+001,9.75610e-001
-4.58228e-005,1.67849e-005,3.75488e-001,9.42383e-002,9.71680e-001,1.39634e+001,3.41463e+001,3.65854e-001
-5.74044e-005,1.72885e-005,3.39355e-001,1.16211e-001,1.00684e+000,1.56707e+001,3.71951e+001,-3.65854e-001
-1.98062e-005,4.39765e-005,3.14941e-001,1.23047e-001,1.00098e+000,1.64634e+001,3.81098e+001,-9.14634e-001
-4.86763e-006,4.01160e-005,2.66113e-001,1.31836e-001,9.62402e-001,1.84146e+001,4.01829e+001,-1.58537e+000
-3.10521e-005,1.98062e-005,2.47559e-001,1.36719e-001,9.27734e-001,1.92683e+001,4.10366e+001,-1.46341e+000
-5.08583e-005,1.46029e-005,2.13379e-001,1.43555e-001,8.71582e-001,2.07927e+001,4.22561e+001,-1.76829e+000
-3.70947e-005,1.40993e-005,2.08496e-001,1.42090e-001,8.57910e-001,2.03659e+001,4.18293e+001,-2.07317e+000
-2.56809e-005,9.23171e-006,2.05078e-001,1.35742e-001,8.57910e-001,1.92683e+001,3.92073e+001,-2.74390e+000
-1.98062e-005,6.71397e-006,2.08496e-001,1.29883e-001,8.74512e-001,1.87195e+001,3.67683e+001,-2.62195e+000
-2.16526e-005,-3.02129e-006,2.30469e-001,1.19141e-001,9.24316e-001,1.78659e+001,3.12195e+001,-3.29268e+000
-1.94705e-005,1.79599e-005,2.53418e-001,1.13281e-001,9.57031e-001,1.78049e+001,2.87805e+001,-3.78049e+000
-1.84634e-005,7.70428e-005,2.72461e-001,1.15234e-001,9.57520e-001,1.68293e+001,2.53659e+001,-5.36585e+000
-1.79599e-005,1.02052e-004,2.96875e-001,1.18164e-001,9.22852e-001,1.65854e+001,2.45732e+001,-6.28049e+000
-1.57778e-005,8.89601e-005,3.06641e-001,1.21094e-001,8.93066e-001,1.63415e+001,2.39024e+001,-7.13415e+000
-1.89670e-005,3.59197e-005,3.10059e-001,1.32324e-001,8.24707e-001,1.64024e+001,2.43293e+001,-6.70732e+000
-1.64492e-005,-2.63523e-005,3.03711e-001,1.36719e-001,7.98340e-001,1.58537e+001,2.41463e+001,-6.15854e+000
-1.62814e-005,-9.08064e-005,2.86621e-001,1.53320e-001,7.71484e-001,1.51829e+001,2.37805e+001,-5.24390e+000
-1.30922e-005,-1.12123e-004,2.70508e-001,1.54297e-001,7.73438e-001,1.29268e+001,2.18293e+001,-4.81707e+000
-9.56741e-006,-5.82437e-005,2.28027e-001,1.65039e-001,7.94922e-001,1.17073e+001,2.01829e+001,-4.45122e+000
-5.20333e-006,-5.15297e-005,2.03613e-001,1.64063e-001,8.14941e-001,1.06098e+001,1.61585e+001,-4.20732e+000
-6.37827e-006,-1.29244e-004,1.55273e-001,1.61621e-001,8.45215e-001,1.01220e+001,1.31098e+001,-4.26829e+000
-3.35698e-006,-3.49126e-005,1.38672e-001,1.58203e-001,8.55469e-001,1.04268e+001,7.43902e+000,-4.02439e+000
-1.15816e-005,1.82956e-005,1.30371e-001,1.59180e-001,8.62793e-001,9.45122e+000,3.47561e+000,-4.20732e+000
-2.34989e-005,-7.90570e-005,1.31836e-001,1.57715e-001,8.60840e-001,7.92683e+000,1.82927e+000,-4.45122e+000
-2.04776e-005,-1.27733e-004,1.65527e-001,1.54297e-001,8.37891e-001,6.76829e+000,-6.09756e-002,-4.69512e+000
-1.15816e-005,-8.50996e-005,1.90918e-001,1.53809e-001,8.18359e-001,6.70732e+000,-3.65854e-001,-4.69512e+000
1.25887e-005,-5.53903e-006,2.32422e-001,1.48926e-001,7.80762e-001,5.73171e+000,-1.64634e+000,-4.93902e+000
3.47448e-005,7.73785e-005,2.46582e-001,1.50391e-001,7.74902e-001,5.42683e+000,-2.80488e+000,-4.63415e+000
2.21561e-005,7.63714e-005,2.57813e-001,1.49414e-001,7.85645e-001,3.78049e+000,-4.93902e+000,-4.57317e+000
-5.87472e-006,3.94446e-005,2.40723e-001,1.50879e-001,8.20313e-001,2.98780e+000,-5.67073e+000,-4.57317e+000
-2.81987e-005,7.88891e-006,2.25586e-001,1.49902e-001,8.41797e-001,2.07317e+000,-7.13415e+000,-4.45122e+000
-2.60166e-005,-6.96574e-005,1.93359e-001,1.46484e-001,8.65723e-001,1.89024e+000,-7.62195e+000,-4.26829e+000
-1.00710e-005,-4.09552e-005,1.75781e-001,1.43066e-001,8.65723e-001,2.19512e+000,-8.23171e+000,-4.26829e+000
-1.72885e-005,1.71206e-005,1.54297e-001,1.32813e-001,8.53027e-001,2.98780e+000,-8.41463e+000,-4.32927e+000
-3.45769e-005,1.49386e-005,1.49902e-001,1.32813e-001,8.47168e-001,3.71951e+000,-9.20732e+000,-3.53659e+000
-3.69268e-005,2.03098e-005,1.45508e-001,1.29883e-001,8.35938e-001,3.53659e+000,-1.01829e+001,-3.41463e+000
-3.37377e-005,4.24659e-005,1.47949e-001,1.29395e-001,8.34961e-001,2.80488e+000,-1.22561e+001,-3.23171e+000
-2.63523e-005,5.25368e-005,1.62109e-001,1.32324e-001,8.47656e-001,2.07317e+000,-1.30488e+001,-3.17073e+000
-2.33310e-005,6.63004e-005,1.70410e-001,1.29395e-001,8.61328e-001,1.82927e+000,-1.44512e+001,-3.47561e+000
-2.58488e-005,5.32082e-005,1.81152e-001,1.25977e-001,8.70117e-001,1.76829e+000,-1.45122e+001,-3.35366e+000
-2.16526e-005,2.11490e-005,1.90918e-001,1.26465e-001,8.70117e-001,1.64634e+000,-1.41463e+001,-3.23171e+000
-1.64492e-005,-9.73526e-006,2.01172e-001,1.27930e-001,8.56934e-001,1.58537e+000,-1.37195e+001,-3.35366e+000
-1.24208e-005,-2.81987e-005,2.02148e-001,1.31348e-001,8.51563e-001,2.07317e+000,-1.16463e+001,-3.10976e+000
-8.89601e-006,-3.40734e-005,2.12891e-001,1.30859e-001,8.43262e-001,2.74390e+000,-1.03049e+001,-3.47561e+000
-9.56741e-006,-3.54162e-005,2.17773e-001,1.30859e-001,8.48633e-001,2.92683e+000,-1.01829e+001,-3.59756e+000
-8.56031e-006,-3.59197e-005,2.29004e-001,1.29883e-001,8.69629e-001,3.23171e+000,-9.26829e+000,-3.71951e+000
-1.19173e-005,-2.28275e-005,2.30957e-001,1.24512e-001,8.82324e-001,2.62195e+000,-8.90244e+000,-4.32927e+000
-1.10781e-005,-6.88182e-006,2.23145e-001,1.22070e-001,9.00879e-001,3.41463e+000,-6.89024e+000,-4.93902e+000
-6.88182e-006,2.40024e-005,2.15332e-001,1.18652e-001,9.00391e-001,4.08537e+000,-5.30488e+000,-4.87805e+000
-8.22461e-006,5.62295e-005,2.02637e-001,1.18652e-001,8.77930e-001,4.93902e+000,-1.89024e+000,-4.81707e+000
-2.06455e-005,4.66621e-005,1.90430e-001,1.25488e-001,8.45703e-001,5.24390e+000,-4.26829e-001,-4.69512e+000
-2.65202e-005,2.34989e-005,1.87500e-001,1.34766e-001,8.30078e-001,5.85366e+000,2.37805e+000,-4.14634e+000
-2.83665e-005,8.22461e-006,1.86035e-001,1.40625e-001,8.27148e-001,5.36585e+000,2.86585e+000,-3.90244e+000
-3.57519e-005,1.35958e-005,1.83594e-001,1.38672e-001,8.36426e-001,5.18293e+000,3.53659e+000,-3.96341e+000
-3.57519e-005,2.80308e-005,1.60645e-001,1.49414e-001,8.57910e-001,4.93902e+000,3.17073e+000,-3.90244e+000
-3.03807e-005,8.56031e-006,1.48926e-001,1.54785e-001,8.72559e-001,4.26829e+000,2.43902e-001,-4.08537e+000
-9.56741e-006,-8.56031e-006,1.36719e-001,1.65039e-001,8.98926e-001,3.96341e+000,-1.28049e+000,-4.57317e+000
8.39246e-007,1.15816e-005,1.33789e-001,1.72852e-001,9.10645e-001,2.37805e+000,-4.63415e+000,-5.00000e+000
-5.03548e-006,1.96384e-005,1.25488e-001,1.81152e-001,9.21875e-001,1.64634e+000,-5.60976e+000,-5.24390e+000
-7.55322e-006,4.58228e-005,1.25000e-001,1.83594e-001,9.24316e-001,3.04878e-001,-6.46341e+000,-6.03659e+000
-1.17494e-006,5.16976e-005,1.25488e-001,1.85547e-001,9.22363e-001,-3.04878e-001,-6.46341e+000,-6.34146e+000
2.51774e-006,4.09552e-005,1.25488e-001,1.90918e-001,9.16992e-001,-1.28049e+000,-7.37805e+000,-6.64634e+000
-4.53193e-006,-2.18204e-005,1.26465e-001,1.96777e-001,9.08203e-001,-1.89024e+000,-7.68293e+000,-7.07317e+000
-9.23171e-006,-7.23430e-005,1.28418e-001,1.96289e-001,9.08203e-001,-3.10976e+000,-8.96342e+000,-7.98780e+000
-8.22461e-006,-1.16487e-004,1.41113e-001,1.93848e-001,9.00391e-001,-4.14634e+000,-1.07317e+001,-8.84146e+000
-5.20333e-006,-1.27733e-004,1.47949e-001,1.98242e-001,8.96484e-001,-4.63415e+000,-1.09756e+001,-8.90244e+000
-7.55322e-006,-1.47204e-004,1.61133e-001,1.91895e-001,8.83789e-001,-5.60976e+000,-1.15244e+001,-9.20732e+000
-1.09102e-005,-1.35454e-004,1.66504e-001,1.88965e-001,8.75977e-001,-5.79268e+000,-1.14634e+001,-9.63415e+000
-1.19173e-005,-6.66362e-005,1.81152e-001,1.87500e-001,8.39355e-001,-6.70732e+000,-1.03049e+001,-1.00000e+001
-1.02388e-005,-1.94705e-005,1.91895e-001,1.82617e-001,8.19824e-001,-6.76829e+000,-9.02439e+000,-9.93902e+000
-1.22530e-005,-1.52743e-005,2.19238e-001,1.66992e-001,7.93945e-001,-6.58537e+000,-7.01220e+000,-9.81707e+000
-1.66171e-005,-3.07164e-005,2.54395e-001,1.63574e-001,7.65137e-001,-5.85366e+000,-5.73171e+000,-9.39024e+000
-1.66171e-005,-4.02838e-005,2.67090e-001,1.60156e-001,7.71484e-001,-5.54878e+000,-5.18293e+000,-9.20732e+000
-1.47707e-005,-2.58488e-005,2.79785e-001,1.49414e-001,7.99316e-001,-5.30488e+000,-5.54878e+000,-8.84146e+000
-2.19883e-005,-9.73526e-006,2.78809e-001,1.45508e-001,8.19336e-001,-5.91463e+000,-7.98780e+000,-8.47561e+000
-2.97093e-005,-1.15816e-005,2.58301e-001,1.41602e-001,8.63770e-001,-6.28049e+000,-9.69512e+000,-8.23171e+000
-2.70237e-005,-1.49386e-005,2.45605e-001,1.40625e-001,8.82324e-001,-6.40244e+000,-1.20732e+001,-7.98780e+000
-2.06455e-005,7.55322e-006,2.02148e-001,1.34277e-001,9.10156e-001,-5.79268e+000,-1.22561e+001,-7.74390e+000
-2.19883e-005,2.03098e-005,1.82129e-001,1.31348e-001,9.19922e-001,-4.57317e+000,-1.24390e+001,-6.40244e+000
-2.76951e-005,1.76242e-005,1.51367e-001,1.25977e-001,9.19434e-001,-3.29268e+000,-1.21341e+001,-5.60976e+000
-2.50095e-005,1.74563e-005,1.38672e-001,1.27441e-001,9.21875e-001,-2.31707e+000,-1.12805e+001,-4.57317e+000
-1.96384e-005,1.61135e-005,1.19629e-001,1.28418e-001,9.29199e-001,-2.25610e+000,-1.07317e+001,-4.32927e+000
-1.15816e-005,2.43381e-005,1.10840e-001,1.34766e-001,9.33594e-001,-1.64634e+000,-1.04878e+001,-3.84146e+000
-4.86763e-006,2.45060e-005,1.05957e-001,1.33789e-001,9.40918e-001,-1.52439e+000,-1.06098e+001,-3.53659e+000
3.86053e-006,2.26596e-005,1.15234e-001,1.38184e-001,9.38477e-001,-1.28049e+000,-1.15854e+001,-2.80488e+000
1.15816e-005,1.35958e-005,1.31348e-001,1.43066e-001,9.39453e-001,-5.48781e-001,-1.22561e+001,-3.04878e+000
-2.51774e-006,-2.18204e-006,1.40625e-001,1.47461e-001,9.42383e-001,-1.82927e-001,-1.26220e+001,-2.80488e+000
-1.96384e-005,2.34989e-005,1.50391e-001,1.49902e-001,9.40430e-001,6.09756e-002,-1.20122e+001,-2.80488e+000
-1.10781e-005,4.75013e-005,1.60645e-001,1.52832e-001,9.41406e-001,4.26829e-001,-1.16463e+001,-2.74390e+000
5.53903e-006,1.59457e-005,1.70410e-001,1.47461e-001,9.53613e-001,7.31707e-001,-1.04268e+001,-2.25610e+000
2.80308e-005,-1.89670e-005,1.72363e-001,1.45508e-001,9.59473e-001,7.92683e-001,-9.87805e+000,-2.37805e+000
1.12459e-005,-2.08133e-005,1.79199e-001,1.41602e-001,9.63867e-001,1.52439e+000,-7.86585e+000,-2.25610e+000
4.53193e-006,1.59457e-005,1.89941e-001,1.34766e-001,9.64844e-001,1.70732e+000,-6.89024e+000,-2.01220e+000
1.35958e-005,3.69268e-006,1.92871e-001,1.30859e-001,9.70215e-001,2.31707e+000,-4.45122e+000,-1.82927e+000
-1.29244e-005,-1.35958e-005,2.00684e-001,1.33789e-001,9.59473e-001,2.74390e+000,-3.29268e+000,-2.19512e+000
-5.65652e-005,4.85084e-005,2.05078e-001,1.33301e-001,9.53125e-001,2.37805e+000,-2.13415e+000,-2.37805e+000
-5.79080e-005,1.26726e-004,2.06543e-001,1.38184e-001,9.31641e-001,2.74390e+000,-1.64634e+000,-2.68293e+000
-3.79339e-005,1.10445e-004,2.06543e-001,1.40625e-001,9.13574e-001,2.56098e+000,-4.26829e-001,-2.62195e+000
-3.84375e-005,3.20592e-005,2.05566e-001,1.44043e-001,8.75488e-001,2.43902e+000,-2.43902e-001,-2.80488e+000
-4.04517e-005,1.57778e-005,2.07520e-001,1.50391e-001,8.57422e-001,2.56098e+000,1.21951e+000,-3.10976e+000
-3.81018e-005,1.51064e-006,2.12402e-001,1.59180e-001,8.26172e-001,2.50000e+000,1.89024e+000,-3.10976e+000
-2.31632e-005,-8.22461e-006,2.18750e-001,1.68945e-001,8.19824e-001,2.43902e+000,2.80488e+000,-3.17073e+000
-1.10781e-005,-2.29953e-005,2.21680e-001,1.78223e-001,8.11523e-001,2.68293e+000,3.04878e+000,-3.29268e+000
