R FLEXOR CARPI RADIALIS: EMG 4 [V],R EXTENSOR DIGITORUM: EMG 5 [V],R IMU Wrist: ACC.X 6 [g],R IMU Wrist: ACC.Y 6 [g],R IMU Wrist: ACC.Z 6 [g],R IMU Wrist: GYRO.X 6 [°/s],R IMU Wrist: GYRO.Y 6 [°/s],R IMU Wrist: GYRO.Z 6 [°/s]
0.00000e+000,0.00000e+000,0.00000e+000,0.00000e+000,0.00000e+000,0.00000e+000,0.00000e+000,0.00000e+000
0.00000e+000,0.00000e+000,0.00000e+000,0.00000e+000,0.00000e+000,0.00000e+000,0.00000e+000,0.00000e+000
0.00000e+000,0.00000e+000,0.00000e+000,0.00000e+000,0.00000e+000,0.00000e+000,0.00000e+000,0.00000e+000
0.00000e+000,0.00000e+000,0.00000e+000,0.00000e+000,0.00000e+000,0.00000e+000,0.00000e+000,0.00000e+000
0.00000e+000,0.00000e+000,0.00000e+000,0.00000e+000,0.00000e+000,0.00000e+000,0.00000e+000,0.00000e+000
0.00000e+000,0.00000e+000,0.00000e+000,0.00000e+000,0.00000e+000,0.00000e+000,0.00000e+000,0.00000e+000
0.00000e+000,0.00000e+000,0.00000e+000,0.00000e+000,0.00000e+000,0.00000e+000,0.00000e+000,0.00000e+000
0.00000e+000,0.00000e+000,0.00000e+000,0.00000e+000,0.00000e+000,0.00000e+000,0.00000e+000,0.00000e+000
0.00000e+000,0.00000e+000,0.00000e+000,0.00000e+000,0.00000e+000,0.00000e+000,0.00000e+000,0.00000e+000
0.00000e+000,0.00000e+000,0.00000e+000,0.00000e+000,0.00000e+000,0.00000e+000,0.00000e+000,0.00000e+000
0.00000e+000,0.00000e+000,0.00000e+000,0.00000e+000,0.00000e+000,0.00000e+000,0.00000e+000,0.00000e+000
0.00000e+000,0.00000e+000,0.00000e+000,0.00000e+000,0.00000e+000,0.00000e+000,0.00000e+000,0.00000e+000
0.00000e+000,0.00000e+000,0.00000e+000,0.00000e+000,0.00000e+000,0.00000e+000,0.00000e+000,0.00000e+000
0.00000e+000,0.00000e+000,0.00000e+000,0.00000e+000,0.00000e+000,0.00000e+000,0.00000e+000,0.00000e+000
0.00000e+000,0.00000e+000,0.00000e+000,0.00000e+000,0.00000e+000,0.00000e+000,0.00000e+000,0.00000e+000
0.00000e+000,0.00000e+000,0.00000e+000,0.00000e+000,0.00000e+000,0.00000e+000,0.00000e+000,0.00000e+000
0.00000e+000,0.00000e+000,0.00000e+000,0.00000e+000,0.00000e+000,0.00000e+000,0.00000e+000,0.00000e+000
0.00000e+000,0.00000e+000,0.00000e+000,0.00000e+000,0.00000e+000,0.00000e+000,0.00000e+000,0.00000e+000
0.00000e+000,0.00000e+000,0.00000e+000,0.00000e+000,0.00000e+000,0.00000e+000,0.00000e+000,0.00000e+000
0.00000e+000,0.00000e+000,0.00000e+000,0.00000e+000,0.00000e+000,0.00000e+000,0.00000e+000,0.00000e+000
0.00000e+000,0.00000e+000,0.00000e+000,0.00000e+000,0.00000e+000,0.00000e+000,0.00000e+000,0.00000e+000
0.00000e+000,0.00000e+000,0.00000e+000,0.00000e+000,0.00000e+000,0.00000e+000,0.00000e+000,0.00000e+000
0.00000e+000,0.00000e+000,0.00000e+000,0.00000e+000,0.00000e+000,0.00000e+000,0.00000e+000,0.00000e+000
0.00000e+000,0.00000e+000,0.00000e+000,0.00000e+000,0.00000e+000,0.00000e+000,0.00000e+000,0.00000e+000
0.00000e+000,0.00000e+000,0.00000e+000,0.00000e+000,0.00000e+000,0.00000e+000,0.00000e+000,0.00000e+000
0.00000e+000,0.00000e+000,0.00000e+000,0.00000e+000,0.00000e+000,0.00000e+000,0.00000e+000,0.00000e+000
0.00000e+000,0.00000e+000,0.00000e+000,0.00000e+000,0.00000e+000,0.00000e+000,0.00000e+000,0.00000e+000
0.00000e+000,0.00000e+000,0.00000e+000,0.00000e+000,0.00000e+000,0.00000e+000,0.00000e+000,0.00000e+000
0.00000e+000,0.00000e+000,0.00000e+000,0.00000e+000,0.00000e+000,0.00000e+000,0.00000e+000,0.00000e+000
0.00000e+000,0.00000e+000,0.00000e+000,0.00000e+000,0.00000e+000,0.00000e+000,0.00000e+000,0.00000e+000
0.00000e+000,0.00000e+000,0.00000e+000,0.00000e+000,0.00000e+000,0.00000e+000,0.00000e+000,0.00000e+000
0.00000e+000,0.00000e+000,0.00000e+000,0.00000e+000,0.00000e+000,0.00000e+000,0.00000e+000,0.00000e+000
0.00000e+000,0.00000e+000,0.00000e+000,0.00000e+000,0.00000e+000,0.00000e+000,0.00000e+000,0.00000e+000
0.00000e+000,0.00000e+000,0.00000e+000,0.00000e+000,0.00000e+000,0.00000e+000,0.00000e+000,0.00000e+000
0.00000e+000,0.00000e+000,0.00000e+000,0.00000e+000,0.00000e+000,0.00000e+000,0.00000e+000,0.00000e+000
0.00000e+000,0.00000e+000,2.53906e-002,1.01563e-001,9.09180e-001,-1.32317e+001,-1.58537e+000,-2.74390e+000
0.00000e+000,0.00000e+000,3.22266e-002,1.02539e-001,9.10156e-001,-1.32927e+001,-1.40244e+000,-3.10976e+000
0.00000e+000,0.00000e+000,3.02734e-002,1.00098e-001,9.13574e-001,-1.31098e+001,-1.46341e+000,-3.17073e+000
0.00000e+000,0.00000e+000,3.17383e-002,9.71680e-002,9.07715e-001,-1.26220e+001,-1.34146e+000,-2.98780e+000
0.00000e+000,0.00000e+000,3.02734e-002,9.76563e-002,9.08203e-001,-1.27439e+001,-1.34146e+000,-2.98780e+000
0.00000e+000,0.00000e+000,3.27148e-002,1.01563e-001,9.12109e-001,-1.26829e+001,-1.46341e+000,-3.23171e+000
0.00000e+000,0.00000e+000,3.32031e-002,9.86328e-002,9.08203e-001,-1.25000e+001,-1.09756e+000,-2.98780e+000
0.00000e+000,0.00000e+000,3.07617e-002,9.66797e-002,9.06250e-001,-1.25000e+001,-9.14634e-001,-3.10976e+000
0.00000e+000,0.00000e+000,2.92969e-002,9.76563e-002,9.09668e-001,-1.25610e+001,-9.14634e-001,-3.23171e+000
0.00000e+000,0.00000e+000,2.92969e-002,9.96094e-002,9.05762e-001,-1.25000e+001,-6.70732e-001,-3.23171e+000
0.00000e+000,0.00000e+000,2.88086e-002,1.01563e-001,9.05273e-001,-1.26220e+001,-4.87805e-001,-2.92683e+000
0.00000e+000,0.00000e+000,2.83203e-002,1.02539e-001,9.05273e-001,-1.27439e+001,-4.26829e-001,-2.98780e+000
0.00000e+000,0.00000e+000,2.97852e-002,1.02539e-001,9.08203e-001,-1.26220e+001,0.00000e+000,-2.80488e+000
0.00000e+000,0.00000e+000,3.32031e-002,1.02051e-001,9.07715e-001,-1.25610e+001,1.82927e-001,-2.74390e+000
0.00000e+000,0.00000e+000,2.83203e-002,1.00098e-001,9.02832e-001,-1.26220e+001,6.09756e-001,-2.80488e+000
0.00000e+000,0.00000e+000,3.02734e-002,9.91211e-002,9.04297e-001,-1.29268e+001,6.09756e-001,-2.62195e+000
0.00000e+000,0.00000e+000,2.92969e-002,1.01563e-001,9.02344e-001,-1.29268e+001,7.92683e-001,-2.68293e+000
0.00000e+000,0.00000e+000,2.68555e-002,1.03027e-001,9.00391e-001,-1.29268e+001,8.53659e-001,-2.74390e+000
0.00000e+000,0.00000e+000,2.88086e-002,1.07422e-001,8.95508e-001,-1.32317e+001,1.34146e+000,-2.62195e+000
0.00000e+000,0.00000e+000,2.44141e-002,1.07910e-001,8.98438e-001,-1.31098e+001,1.52439e+000,-2.80488e+000
0.00000e+000,0.00000e+000,2.68555e-002,1.07422e-001,8.99902e-001,-1.36585e+001,1.58537e+000,-2.56098e+000
0.00000e+000,0.00000e+000,2.49023e-002,1.04004e-001,8.97461e-001,-1.37195e+001,1.70732e+000,-2.43902e+000
0.00000e+000,0.00000e+000,2.97852e-002,1.05957e-001,8.96484e-001,-1.39024e+001,1.76829e+000,-2.43902e+000
0.00000e+000,0.00000e+000,3.27148e-002,1.02051e-001,8.95996e-001,-1.35976e+001,2.01220e+000,-2.07317e+000
0.00000e+000,0.00000e+000,2.73438e-002,1.03516e-001,8.93066e-001,-1.35976e+001,2.01220e+000,-2.13415e+000
0.00000e+000,0.00000e+000,2.05078e-002,1.03027e-001,8.94043e-001,-1.40244e+001,2.25610e+000,-2.19512e+000
0.00000e+000,0.00000e+000,2.14844e-002,1.04492e-001,8.92578e-001,-1.38415e+001,2.25610e+000,-2.13415e+000
0.00000e+000,0.00000e+000,1.46484e-002,1.09863e-001,8.93555e-001,-1.39024e+001,2.25610e+000,-2.07317e+000
0.00000e+000,0.00000e+000,2.19727e-002,1.06445e-001,8.94043e-001,-1.36585e+001,2.31707e+000,-1.89024e+000
0.00000e+000,0.00000e+000,2.19727e-002,1.06445e-001,8.94043e-001,-1.39634e+001,2.07317e+000,-1.95122e+000
0.00000e+000,0.00000e+000,1.51367e-002,1.04004e-001,8.93555e-001,-1.42073e+001,2.01220e+000,-1.76829e+000
0.00000e+000,0.00000e+000,2.09961e-002,1.01074e-001,8.87207e-001,-1.40854e+001,2.01220e+000,-1.64634e+000
0.00000e+000,0.00000e+000,1.56250e-002,1.01563e-001,8.86719e-001,-1.39634e+001,1.82927e+000,-1.58537e+000
0.00000e+000,0.00000e+000,1.85547e-002,9.86328e-002,8.89648e-001,-1.40244e+001,2.01220e+000,-1.70732e+000
0.00000e+000,0.00000e+000,1.61133e-002,1.02539e-001,8.89160e-001,-1.40854e+001,1.89024e+000,-1.52439e+000
0.00000e+000,0.00000e+000,1.80664e-002,1.03516e-001,8.85742e-001,-1.38415e+001,1.82927e+000,-1.46341e+000
0.00000e+000,0.00000e+000,1.66016e-002,1.05957e-001,8.85742e-001,-1.40244e+001,1.70732e+000,-1.46341e+000
0.00000e+000,0.00000e+000,1.56250e-002,1.06445e-001,8.82324e-001,-1.38415e+001,1.58537e+000,-1.46341e+000
0.00000e+000,0.00000e+000,1.56250e-002,1.05469e-001,8.82324e-001,-1.39634e+001,1.46341e+000,-1.70732e+000
0.00000e+000,0.00000e+000,1.75781e-002,1.08887e-001,8.85742e-001,-1.38415e+001,1.15854e+000,-1.28049e+000
0.00000e+000,0.00000e+000,1.70898e-002,1.05957e-001,8.83301e-001,-1.42073e+001,1.15854e+000,-1.46341e+000
0.00000e+000,0.00000e+000,2.14844e-002,1.08398e-001,8.80859e-001,-1.42073e+001,9.75610e-001,-1.64634e+000
0.00000e+000,0.00000e+000,2.09961e-002,1.08398e-001,8.85742e-001,-1.43902e+001,1.15854e+000,-1.34146e+000
0.00000e+000,0.00000e+000,2.39258e-002,1.08887e-001,8.84277e-001,-1.41463e+001,1.28049e+000,-1.64634e+000
0.00000e+000,0.00000e+000,2.14844e-002,1.07910e-001,8.81836e-001,-1.45732e+001,1.15854e+000,-1.58537e+000
0.00000e+000,0.00000e+000,2.00195e-002,1.11328e-001,8.82324e-001,-1.39024e+001,1.21951e+000,-1.70732e+000
0.00000e+000,0.00000e+000,1.70898e-002,1.10840e-001,8.78906e-001,-1.41463e+001,1.21951e+000,-1.52439e+000
0.00000e+000,0.00000e+000,2.09961e-002,1.06934e-001,8.79395e-001,-1.41463e+001,1.15854e+000,-1.64634e+000
0.00000e+000,0.00000e+000,1.80664e-002,1.07422e-001,8.75977e-001,-1.42683e+001,7.92683e-001,-1.46341e+000
0.00000e+000,0.00000e+000,1.70898e-002,1.06934e-001,8.77441e-001,-1.42683e+001,9.14634e-001,-1.52439e+000
0.00000e+000,0.00000e+000,1.12305e-002,1.09375e-001,8.76953e-001,-1.39634e+001,8.53659e-001,-1.28049e+000
0.00000e+000,0.00000e+000,1.46484e-002,1.10352e-001,8.74512e-001,-1.41463e+001,6.09756e-001,-1.46341e+000
0.00000e+000,0.00000e+000,2.24609e-002,1.08398e-001,8.80371e-001,-1.39024e+001,6.09756e-001,-1.64634e+000
0.00000e+000,0.00000e+000,2.00195e-002,1.05957e-001,8.77930e-001,-1.40244e+001,3.65854e-001,-1.46341e+000
0.00000e+000,0.00000e+000,1.75781e-002,1.09375e-001,8.77930e-001,-1.40244e+001,4.26829e-001,-1.52439e+000
0.00000e+000,0.00000e+000,1.51367e-002,1.11328e-001,8.78906e-001,-1.40854e+001,4.26829e-001,-1.58537e+000
0.00000e+000,0.00000e+000,1.95313e-002,1.06445e-001,8.79395e-001,-1.40854e+001,4.26829e-001,-1.46341e+000
0.00000e+000,0.00000e+000,2.14844e-002,1.10352e-001,8.77441e-001,-1.40244e+001,6.09756e-001,-1.46341e+000
0.00000e+000,0.00000e+000,1.80664e-002,1.08887e-001,8.81836e-001,-1.39024e+001,6.70732e-001,-1.34146e+000
0.00000e+000,0.00000e+000,1.80664e-002,1.08887e-001,8.81836e-001,-1.41463e+001,7.92683e-001,-1.03659e+000
0.00000e+000,0.00000e+000,1.90430e-002,1.10840e-001,8.81836e-001,-1.41463e+001,8.53659e-001,-1.15854e+000
0.00000e+000,0.00000e+000,2.29492e-002,1.06934e-001,8.83789e-001,-1.42073e+001,9.14634e-001,-1.52439e+000
0.00000e+000,0.00000e+000,2.14844e-002,1.07422e-001,8.82813e-001,-1.42683e+001,1.03659e+000,-1.15854e+000
0.00000e+000,0.00000e+000,2.49023e-002,1.12305e-001,8.85254e-001,-1.42683e+001,1.34146e+000,-1.46341e+000
0.00000e+000,0.00000e+000,2.88086e-002,1.10840e-001,8.87207e-001,-1.43902e+001,1.28049e+000,-1.46341e+000
0.00000e+000,0.00000e+000,2.53906e-002,1.13770e-001,8.85742e-001,-1.45732e+001,1.52439e+000,-1.28049e+000
0.00000e+000,0.00000e+000,2.44141e-002,1.13770e-001,8.85254e-001,-1.48171e+001,1.82927e+000,-1.40244e+000
0.00000e+000,0.00000e+000,2.39258e-002,1.13281e-001,8.81836e-001,-1.50610e+001,2.31707e+000,-1.40244e+000
0.00000e+000,0.00000e+000,2.24609e-002,1.10352e-001,8.79883e-001,-1.50610e+001,2.37805e+000,-1.03659e+000
0.00000e+000,0.00000e+000,2.05078e-002,1.11328e-001,8.81836e-001,-1.52439e+001,2.50000e+000,-9.75610e-001
0.00000e+000,0.00000e+000,1.51367e-002,1.12305e-001,8.81836e-001,-1.56098e+001,2.56098e+000,-9.14634e-001
0.00000e+000,0.00000e+000,1.70898e-002,1.10840e-001,8.82813e-001,-1.56098e+001,2.37805e+000,-9.75610e-001
0.00000e+000,0.00000e+000,1.17188e-002,1.12305e-001,8.79883e-001,-1.57317e+001,2.19512e+000,-1.09756e+000
0.00000e+000,0.00000e+000,9.76563e-003,1.11816e-001,8.77930e-001,-1.59146e+001,2.31707e+000,-1.15854e+000
0.00000e+000,0.00000e+000,1.31836e-002,1.13770e-001,8.79395e-001,-1.61585e+001,1.76829e+000,-8.53659e-001
0.00000e+000,0.00000e+000,1.07422e-002,1.13770e-001,8.73535e-001,-1.62805e+001,1.82927e+000,-1.21951e+000
0.00000e+000,0.00000e+000,1.02539e-002,1.13281e-001,8.74512e-001,-1.60976e+001,1.40244e+000,-1.09756e+000
0.00000e+000,0.00000e+000,1.85547e-002,1.13281e-001,8.73535e-001,-1.66463e+001,1.46341e+000,-1.21951e+000
0.00000e+000,0.00000e+000,2.00195e-002,1.14258e-001,8.68652e-001,-1.62805e+001,1.21951e+000,-1.46341e+000
0.00000e+000,0.00000e+000,2.05078e-002,1.11816e-001,8.75000e-001,-1.63415e+001,1.28049e+000,-1.21951e+000
0.00000e+000,0.00000e+000,2.29492e-002,1.12793e-001,8.72559e-001,-1.65854e+001,1.21951e+000,-1.21951e+000
0.00000e+000,0.00000e+000,2.73438e-002,1.17676e-001,8.71582e-001,-1.67073e+001,1.34146e+000,-1.46341e+000
0.00000e+000,0.00000e+000,2.58789e-002,1.15234e-001,8.70605e-001,-1.68902e+001,1.58537e+000,-1.15854e+000
0.00000e+000,0.00000e+000,1.95313e-002,1.19629e-001,8.69629e-001,-1.69512e+001,1.34146e+000,-1.40244e+000
-1.47707e-005,-1.98062e-005,1.85547e-002,1.17188e-001,8.66211e-001,-1.70122e+001,1.40244e+000,-1.40244e+000
-1.22530e-005,-1.35958e-005,1.66016e-002,1.08887e-001,8.67188e-001,-1.75000e+001,1.52439e+000,-1.52439e+000
-1.64492e-005,-9.56741e-006,1.26953e-002,1.08887e-001,8.72070e-001,-1.78049e+001,1.58537e+000,-1.70732e+000
-1.46029e-005,-8.89601e-006,1.41602e-002,1.06934e-001,8.73535e-001,-1.75000e+001,1.52439e+000,-1.52439e+000
-1.02388e-005,-1.24208e-005,1.70898e-002,1.06934e-001,8.77930e-001,-1.76829e+001,1.15854e+000,-1.64634e+000
-9.56741e-006,-1.29244e-005,2.05078e-002,1.04980e-001,8.77930e-001,-1.77439e+001,1.28049e+000,-1.58537e+000
-7.88891e-006,-1.14137e-005,1.31836e-002,1.09863e-001,8.73047e-001,-1.75610e+001,8.53659e-001,-1.64634e+000
-7.88891e-006,-1.10781e-005,8.78906e-003,1.09863e-001,8.75000e-001,-1.77439e+001,8.53659e-001,-1.64634e+000
-1.05745e-005,-9.23171e-006,1.07422e-002,1.06445e-001,8.72559e-001,-1.81098e+001,2.43902e-001,-1.52439e+000
-8.56031e-006,-1.22530e-005,1.22070e-002,1.09863e-001,8.77441e-001,-1.78659e+001,2.43902e-001,-1.89024e+000
-9.23171e-006,-9.23171e-006,1.66016e-002,1.08398e-001,8.76953e-001,-1.82927e+001,2.43902e-001,-1.70732e+000
-1.05745e-005,-8.89601e-006,1.66016e-002,1.04004e-001,8.80859e-001,-1.82927e+001,2.43902e-001,-1.82927e+000
-1.17494e-005,-1.05745e-005,1.90430e-002,1.07910e-001,8.77930e-001,-1.85366e+001,2.43902e-001,-1.82927e+000
-8.89601e-006,-9.56741e-006,2.34375e-002,1.07910e-001,8.80371e-001,-1.86585e+001,1.21951e-001,-1.58537e+000
-8.56031e-006,-1.12459e-005,2.00195e-002,1.07422e-001,8.78418e-001,-1.90854e+001,3.65854e-001,-1.70732e+000
-6.88182e-006,-1.56100e-005,1.51367e-002,1.05469e-001,8.79883e-001,-1.88415e+001,2.43902e-001,-1.76829e+000
-5.20333e-006,-1.69528e-005,1.66016e-002,1.05957e-001,8.82324e-001,-1.88415e+001,2.43902e-001,-1.46341e+000
-8.89601e-006,-1.79599e-005,1.85547e-002,1.04980e-001,8.82813e-001,-1.90854e+001,4.87805e-001,-1.76829e+000
-8.89601e-006,-1.93027e-005,1.61133e-002,1.03516e-001,8.84766e-001,-1.92683e+001,3.04878e-001,-1.95122e+000
-6.88182e-006,-2.09812e-005,1.51367e-002,1.09863e-001,8.87207e-001,-1.93902e+001,5.48781e-001,-1.64634e+000
-1.04067e-005,-1.76242e-005,1.51367e-002,1.05957e-001,8.88672e-001,-1.90854e+001,3.65854e-001,-1.70732e+000
-1.32601e-005,-2.04776e-005,1.31836e-002,1.08887e-001,8.88672e-001,-1.93902e+001,7.31707e-001,-1.52439e+000
-1.29244e-005,-1.79599e-005,1.07422e-002,1.05469e-001,8.89160e-001,-1.94512e+001,6.09756e-001,-1.52439e+000
-1.39315e-005,-1.22530e-005,1.07422e-002,1.06934e-001,8.94531e-001,-1.92683e+001,2.43902e-001,-1.52439e+000
-1.32601e-005,-4.02838e-006,5.85938e-003,1.03516e-001,8.91113e-001,-1.90854e+001,6.09756e-002,-1.15854e+000
-9.90310e-006,-4.69978e-006,4.88281e-004,1.04004e-001,8.96973e-001,-1.91463e+001,-6.09756e-002,-1.09756e+000
-1.07424e-005,-7.72107e-006,3.90625e-003,1.03027e-001,8.97461e-001,-1.90244e+001,-6.70732e-001,-9.75610e-001
-1.30922e-005,-1.10781e-005,7.32422e-003,1.02539e-001,9.00391e-001,-1.89634e+001,-7.92683e-001,-9.14634e-001
-1.22530e-005,-9.23171e-006,4.88281e-003,1.02051e-001,9.07715e-001,-1.89634e+001,-7.31707e-001,-1.03659e+000
-1.29244e-005,-7.88891e-006,8.78906e-003,1.04492e-001,9.05762e-001,-1.90244e+001,-1.03659e+000,-1.15854e+000
-1.25887e-005,-4.86763e-006,1.31836e-002,9.66797e-002,9.03320e-001,-1.88415e+001,-1.34146e+000,-1.03659e+000
-1.22530e-005,-6.37827e-006,1.41602e-002,1.05469e-001,9.07715e-001,-1.84756e+001,-1.28049e+000,-8.53659e-001
-1.02388e-005,-9.56741e-006,1.56250e-002,1.03027e-001,9.07227e-001,-1.86585e+001,-1.34146e+000,-9.14634e-001
-6.21042e-006,-5.53903e-006,1.75781e-002,1.04492e-001,9.06738e-001,-1.84756e+001,-1.09756e+000,-7.92683e-001
-5.53903e-006,-3.69268e-006,2.05078e-002,1.03027e-001,9.08203e-001,-1.84756e+001,-1.15854e+000,-6.70732e-001
-9.23171e-006,-2.51774e-006,1.90430e-002,1.03516e-001,9.11133e-001,-1.86585e+001,-8.53659e-001,-7.31707e-001
-1.25887e-005,2.01419e-006,1.75781e-002,1.07910e-001,9.11133e-001,-1.89024e+001,-1.09756e+000,-6.70732e-001
-1.39315e-005,6.54612e-006,1.85547e-002,1.02051e-001,9.11621e-001,-1.86585e+001,-5.48781e-001,-6.70732e-001
-4.86763e-006,9.90310e-006,1.85547e-002,1.03516e-001,9.13086e-001,-1.85976e+001,-7.31707e-001,-5.48781e-001
-1.22530e-005,2.51774e-006,1.56250e-002,1.02051e-001,9.09668e-001,-1.85976e+001,-3.65854e-001,-4.87805e-001
-1.57778e-005,-7.21752e-006,1.31836e-002,1.02539e-001,9.11133e-001,-1.86585e+001,-4.26829e-001,-3.65854e-001
-1.09102e-005,-7.72107e-006,8.78906e-003,1.02539e-001,9.12598e-001,-1.85366e+001,-1.82927e-001,-3.04878e-001
-1.07424e-005,-1.71206e-005,1.07422e-002,1.00098e-001,9.11621e-001,-1.85976e+001,-4.26829e-001,-6.09756e-002
-1.00710e-005,-2.56809e-005,1.17188e-002,9.66797e-002,9.12598e-001,-1.85976e+001,-2.43902e-001,-1.82927e-001
-9.23171e-006,-2.65202e-005,1.56250e-002,1.04004e-001,9.15527e-001,-1.85366e+001,-6.09756e-002,6.09756e-002
-1.09102e-005,-2.34989e-005,1.61133e-002,1.04004e-001,9.16992e-001,-1.85976e+001,1.82927e-001,-1.21951e-001
-8.22461e-006,-2.09812e-005,7.81250e-003,1.03027e-001,9.18945e-001,-1.85976e+001,-1.21951e-001,-3.04878e-001
-3.18914e-006,-1.72885e-005,1.17188e-002,1.07910e-001,9.18457e-001,-1.85366e+001,-3.65854e-001,-1.82927e-001
-2.51774e-006,-7.88891e-006,1.70898e-002,1.04004e-001,9.14063e-001,-1.81098e+001,-3.04878e-001,-6.09756e-002
-8.22461e-006,-1.00710e-006,2.19727e-002,1.06934e-001,9.09180e-001,-1.85976e+001,-1.82927e-001,1.82927e-001
-1.09102e-005,6.71397e-007,1.31836e-002,1.08398e-001,9.18457e-001,-1.84756e+001,1.21951e-001,1.21951e-001
-1.19173e-005,-5.03548e-006,1.90430e-002,1.07422e-001,9.16992e-001,-1.84146e+001,1.82927e-001,3.65854e-001
-1.12459e-005,-3.86053e-006,1.80664e-002,1.11328e-001,9.16504e-001,-1.82317e+001,0.00000e+000,2.43902e-001
-1.17494e-005,-2.18204e-006,1.95313e-002,1.07422e-001,9.13086e-001,-1.81707e+001,0.00000e+000,2.43902e-001
-6.54612e-006,-1.02388e-005,2.39258e-002,1.13281e-001,9.10156e-001,-1.84146e+001,0.00000e+000,5.48781e-001
-5.53903e-006,-1.49386e-005,2.24609e-002,1.07422e-001,9.10645e-001,-1.84756e+001,0.00000e+000,2.43902e-001
-9.56741e-006,-1.49386e-005,1.56250e-002,1.05957e-001,9.08691e-001,-1.82927e+001,-1.21951e-001,4.26829e-001
-1.09102e-005,-1.17494e-006,2.24609e-002,1.07422e-001,9.04297e-001,-1.84146e+001,2.43902e-001,4.87805e-001
-1.09102e-005,4.86763e-006,2.63672e-002,1.03027e-001,9.04297e-001,-1.81707e+001,6.09756e-002,7.31707e-001
-8.56031e-006,-3.52483e-006,2.44141e-002,1.03027e-001,9.06250e-001,-1.79268e+001,-1.21951e-001,7.31707e-001
-7.21752e-006,-1.19173e-005,2.53906e-002,1.02539e-001,9.06738e-001,-1.79268e+001,-6.09756e-002,6.09756e-001
-9.73526e-006,-9.23171e-006,2.19727e-002,1.04004e-001,9.06250e-001,-1.81707e+001,-2.43902e-001,7.92683e-001
-9.56741e-006,-6.88182e-006,1.80664e-002,1.07422e-001,9.10645e-001,-1.79878e+001,-3.65854e-001,8.53659e-001
-9.39956e-006,-1.12459e-005,2.05078e-002,1.07422e-001,9.10156e-001,-1.81098e+001,-3.04878e-001,8.53659e-001
-9.56741e-006,-9.90310e-006,1.80664e-002,1.08887e-001,9.13574e-001,-1.79878e+001,-3.65854e-001,1.15854e+000
-1.22530e-005,-8.22461e-006,2.14844e-002,1.04492e-001,9.14063e-001,-1.76220e+001,-6.09756e-001,7.92683e-001
-1.05745e-005,-4.53193e-006,2.34375e-002,1.03516e-001,9.10156e-001,-1.76220e+001,-4.26829e-001,7.31707e-001
-9.73526e-006,-3.52483e-006,2.49023e-002,1.07910e-001,9.11621e-001,-1.75610e+001,-6.70732e-001,7.31707e-001
-1.30922e-005,-3.18914e-006,2.63672e-002,1.04492e-001,9.07715e-001,-1.71341e+001,-5.48781e-001,1.21951e+000
-1.32601e-005,-3.18914e-006,3.02734e-002,1.07910e-001,9.10645e-001,-1.73780e+001,-1.82927e-001,1.15854e+000
-1.19173e-005,-5.20333e-006,3.12500e-002,1.02539e-001,9.11133e-001,-1.72561e+001,-6.09756e-002,1.21951e+000
-1.05745e-005,-5.20333e-006,3.07617e-002,1.01074e-001,9.13574e-001,-1.70732e+001,-1.82927e-001,1.09756e+000
-1.30922e-005,-6.21042e-006,3.07617e-002,1.04004e-001,9.17969e-001,-1.68902e+001,-1.82927e-001,1.21951e+000
-1.24208e-005,-9.06386e-006,3.07617e-002,1.09375e-001,9.15527e-001,-1.68293e+001,0.00000e+000,1.28049e+000
-1.29244e-005,-1.02388e-005,2.73438e-002,1.06934e-001,9.17480e-001,-1.68293e+001,0.00000e+000,1.40244e+000
-1.17494e-005,-1.62814e-005,2.92969e-002,1.08398e-001,9.12598e-001,-1.67683e+001,5.48781e-001,1.64634e+000
-6.88182e-006,-2.80308e-005,2.53906e-002,9.96094e-002,9.14063e-001,-1.68902e+001,6.70732e-001,1.46341e+000
-8.05676e-006,-3.84375e-005,2.44141e-002,1.02051e-001,9.17480e-001,-1.68902e+001,6.70732e-001,1.52439e+000
-7.55322e-006,-4.21302e-005,3.17383e-002,1.04004e-001,9.14063e-001,-1.69512e+001,6.70732e-001,1.52439e+000
-5.70687e-006,-4.07874e-005,3.02734e-002,1.01563e-001,9.12598e-001,-1.66463e+001,5.48781e-001,1.52439e+000
-8.22461e-006,-3.00450e-005,2.88086e-002,1.02539e-001,9.06738e-001,-1.68902e+001,6.09756e-001,1.76829e+000
-7.88891e-006,-2.40024e-005,2.73438e-002,1.03516e-001,9.08203e-001,-1.67683e+001,6.70732e-001,1.52439e+000
-6.21042e-006,-9.56741e-006,3.02734e-002,1.05469e-001,9.10645e-001,-1.66463e+001,4.87805e-001,1.21951e+000
-6.71397e-006,2.33310e-005,2.92969e-002,1.05957e-001,9.12109e-001,-1.68293e+001,6.09756e-001,1.28049e+000
-6.54612e-006,4.71656e-005,2.88086e-002,1.04980e-001,9.09668e-001,-1.68902e+001,5.48781e-001,1.46341e+000
-1.05745e-005,4.46479e-005,3.22266e-002,1.06445e-001,9.09180e-001,-1.69512e+001,6.09756e-001,1.52439e+000
-1.02388e-005,4.07874e-005,3.41797e-002,1.11328e-001,9.05273e-001,-1.69512e+001,3.65854e-001,1.21951e+000
-8.22461e-006,2.63523e-005,3.71094e-002,1.10840e-001,9.09180e-001,-1.67073e+001,3.04878e-001,1.28049e+000
-1.09102e-005,1.10781e-005,3.71094e-002,1.10840e-001,9.09180e-001,-1.67683e+001,6.09756e-001,1.09756e+000
-1.30922e-005,3.52483e-006,3.22266e-002,1.11816e-001,9.08203e-001,-1.67073e+001,3.65854e-001,9.14634e-001
-1.39315e-005,-5.87472e-006,3.02734e-002,1.10840e-001,9.08203e-001,-1.67073e+001,4.26829e-001,8.53659e-001
-1.46029e-005,-1.30922e-005,3.12500e-002,1.14258e-001,9.09180e-001,-1.67683e+001,3.04878e-001,1.15854e+000
-1.49386e-005,-2.85344e-005,3.22266e-002,1.11816e-001,9.12598e-001,-1.66463e+001,1.21951e-001,8.53659e-001
-1.54421e-005,-3.67590e-005,3.36914e-002,1.07910e-001,9.10156e-001,-1.67683e+001,1.21951e-001,7.92683e-001
-1.49386e-005,-3.23949e-005,3.56445e-002,1.04980e-001,9.09180e-001,-1.65244e+001,1.21951e-001,5.48781e-001
-1.24208e-005,-3.40734e-005,3.61328e-002,1.08887e-001,9.11133e-001,-1.64634e+001,-3.04878e-001,3.65854e-001
-1.00710e-005,-3.28984e-005,3.71094e-002,1.08887e-001,9.11133e-001,-1.65244e+001,-3.04878e-001,1.21951e-001
-1.12459e-005,-3.07164e-005,3.85742e-002,1.08398e-001,9.10156e-001,-1.65244e+001,-4.26829e-001,1.21951e-001
-1.35958e-005,-2.56809e-005,4.05273e-002,1.04492e-001,9.09668e-001,-1.64634e+001,-5.48781e-001,6.09756e-002
-1.42672e-005,-8.22461e-006,3.85742e-002,1.00098e-001,9.10156e-001,-1.62195e+001,-5.48781e-001,-1.21951e-001
-1.25887e-005,1.02388e-005,3.71094e-002,1.03027e-001,9.05762e-001,-1.64024e+001,-6.70732e-001,-5.48781e-001
-1.12459e-005,1.79599e-005,4.24805e-002,1.01563e-001,9.09668e-001,-1.62195e+001,-7.92683e-001,-6.70732e-001
-1.24208e-005,1.15816e-005,4.44336e-002,1.01074e-001,9.07227e-001,-1.62195e+001,-5.48781e-001,-6.70732e-001
-1.09102e-005,4.86763e-006,4.49219e-002,9.91211e-002,9.06250e-001,-1.64634e+001,-1.82927e-001,-6.70732e-001
-8.22461e-006,-5.03548e-006,4.19922e-002,1.00098e-001,9.06250e-001,-1.62195e+001,-6.09756e-002,-6.70732e-001
-9.90310e-006,-1.51064e-005,4.15039e-002,9.81445e-002,9.02832e-001,-1.64024e+001,0.00000e+000,-5.48781e-001
-8.39246e-006,-2.87022e-005,3.90625e-002,1.02051e-001,9.01855e-001,-1.61585e+001,-6.09756e-002,-6.70732e-001
-9.06386e-006,-3.91089e-005,3.90625e-002,9.81445e-002,9.04297e-001,-1.62805e+001,6.09756e-002,-8.53659e-001
-1.22530e-005,-3.77661e-005,3.66211e-002,9.71680e-002,9.03320e-001,-1.62805e+001,2.43902e-001,-7.92683e-001
-8.89601e-006,-4.07874e-005,3.95508e-002,1.02051e-001,9.03809e-001,-1.64024e+001,3.04878e-001,-9.14634e-001
-4.53193e-006,-4.26337e-005,4.15039e-002,1.01074e-001,9.03320e-001,-1.65854e+001,1.21951e-001,-6.09756e-001
-4.19623e-006,-3.64233e-005,4.29688e-002,1.05469e-001,9.03809e-001,-1.64634e+001,6.70732e-001,-1.15854e+000
-6.88182e-006,-2.43381e-005,4.34570e-002,1.02539e-001,9.00391e-001,-1.65854e+001,7.92683e-001,-1.28049e+000
-8.39246e-006,-1.39315e-005,4.29688e-002,1.01563e-001,8.98438e-001,-1.65854e+001,1.09756e+000,-1.40244e+000
-8.89601e-006,-8.22461e-006,4.34570e-002,1.03027e-001,9.01367e-001,-1.68902e+001,8.53659e-001,-1.34146e+000
-7.88891e-006,-2.18204e-006,4.15039e-002,1.05469e-001,9.01855e-001,-1.70122e+001,6.09756e-001,-1.34146e+000
-9.06386e-006,5.03548e-007,3.75977e-002,1.04492e-001,9.02832e-001,-1.70122e+001,6.09756e-001,-1.46341e+000
-8.56031e-006,-1.17494e-006,3.66211e-002,1.06934e-001,9.08203e-001,-1.67683e+001,9.75610e-001,-1.40244e+000
-8.56031e-006,-5.53903e-006,3.61328e-002,1.03027e-001,9.06738e-001,-1.68902e+001,9.14634e-001,-1.46341e+000
-1.22530e-005,-6.71397e-006,3.71094e-002,1.07422e-001,9.09180e-001,-1.67683e+001,9.14634e-001,-1.58537e+000
-1.29244e-005,-1.15816e-005,3.51563e-002,1.00098e-001,9.04297e-001,-1.68293e+001,1.34146e+000,-1.58537e+000
-1.02388e-005,-1.30922e-005,3.51563e-002,1.02051e-001,9.03809e-001,-1.68902e+001,1.15854e+000,-1.64634e+000
-1.10781e-005,-1.19173e-005,3.61328e-002,9.81445e-002,9.07227e-001,-1.70732e+001,1.40244e+000,-1.76829e+000
-8.89601e-006,-9.23171e-006,3.41797e-002,1.00098e-001,9.05273e-001,-1.71341e+001,1.52439e+000,-1.82927e+000
-5.87472e-006,-7.88891e-006,3.61328e-002,9.96094e-002,9.06250e-001,-1.71951e+001,1.46341e+000,-1.70732e+000
-5.87472e-006,-1.17494e-005,3.61328e-002,1.07422e-001,9.01855e-001,-1.73780e+001,1.52439e+000,-1.64634e+000
-1.24208e-005,-3.69268e-006,3.51563e-002,1.06445e-001,9.04785e-001,-1.75000e+001,1.28049e+000,-1.76829e+000
-1.35958e-005,1.15816e-005,3.56445e-002,1.03516e-001,9.06250e-001,-1.73780e+001,1.03659e+000,-1.89024e+000
-1.19173e-005,1.62814e-005,3.41797e-002,1.04492e-001,9.04785e-001,-1.70732e+001,1.09756e+000,-1.82927e+000
-1.22530e-005,1.76242e-005,2.88086e-002,1.02051e-001,8.99902e-001,-1.71951e+001,1.03659e+000,-1.82927e+000
-1.07424e-005,1.52743e-005,2.63672e-002,1.00098e-001,9.00879e-001,-1.70122e+001,9.14634e-001,-1.76829e+000
-9.56741e-006,-4.36408e-006,2.73438e-002,9.66797e-002,9.07715e-001,-1.65854e+001,9.14634e-001,-2.01220e+000
-8.05676e-006,-1.82956e-005,2.73438e-002,9.76563e-002,9.11133e-001,-1.67073e+001,6.70732e-001,-2.07317e+000
-6.88182e-006,-2.34989e-005,3.12500e-002,9.66797e-002,9.17480e-001,-1.67073e+001,3.65854e-001,-2.13415e+000
-7.88891e-006,-3.02129e-005,3.22266e-002,9.66797e-002,9.13574e-001,-1.64634e+001,1.21951e-001,-2.19512e+000
-2.85344e-006,-2.85344e-005,3.12500e-002,9.81445e-002,9.15527e-001,-1.64024e+001,0.00000e+000,-2.50000e+000
-1.17494e-006,-7.55322e-006,3.61328e-002,9.76563e-002,9.16016e-001,-1.62805e+001,-6.09756e-002,-2.31707e+000
-2.51774e-006,1.12459e-005,3.22266e-002,9.76563e-002,9.17969e-001,-1.63415e+001,1.21951e-001,-2.25610e+000
-3.35698e-006,1.96384e-005,3.17383e-002,9.13086e-002,9.13086e-001,-1.62195e+001,2.43902e-001,-2.43902e+000
-6.21042e-006,1.09102e-005,3.56445e-002,9.57031e-002,9.14063e-001,-1.62805e+001,1.82927e-001,-2.43902e+000
-9.90310e-006,7.21752e-006,3.66211e-002,9.66797e-002,9.09668e-001,-1.61585e+001,4.87805e-001,-2.62195e+000
-1.12459e-005,1.17494e-006,3.46680e-002,9.86328e-002,9.08691e-001,-1.61585e+001,1.21951e-001,-2.43902e+000
-1.52743e-005,-1.35958e-005,3.32031e-002,9.81445e-002,9.10156e-001,-1.61585e+001,5.48781e-001,-2.62195e+000
-1.69528e-005,-1.12459e-005,3.36914e-002,1.03516e-001,9.09180e-001,-1.63415e+001,6.70732e-001,-2.74390e+000
-1.39315e-005,9.23171e-006,3.36914e-002,1.02051e-001,9.08203e-001,-1.63415e+001,4.87805e-001,-2.62195e+000
-9.56741e-006,1.05745e-005,3.02734e-002,1.03516e-001,9.02832e-001,-1.63415e+001,7.92683e-001,-2.68293e+000
-2.51774e-006,1.84634e-006,3.27148e-002,1.00098e-001,9.04785e-001,-1.63415e+001,8.53659e-001,-2.86585e+000
-6.88182e-006,-3.69268e-006,2.78320e-002,1.03027e-001,9.03320e-001,-1.67073e+001,1.21951e+000,-2.74390e+000
-1.76242e-005,-7.04967e-006,2.78320e-002,1.03516e-001,9.03320e-001,-1.67683e+001,1.15854e+000,-2.56098e+000
-1.86313e-005,-1.22530e-005,2.63672e-002,1.04004e-001,9.01855e-001,-1.67683e+001,1.40244e+000,-2.86585e+000
-1.57778e-005,-2.43381e-005,2.53906e-002,1.04004e-001,9.07227e-001,-1.68902e+001,1.28049e+000,-2.98780e+000
-1.64492e-005,-3.20592e-005,2.05078e-002,1.01563e-001,9.04297e-001,-1.70122e+001,1.46341e+000,-2.74390e+000
-1.72885e-005,-3.59197e-005,2.14844e-002,1.03027e-001,9.06250e-001,-1.69512e+001,1.52439e+000,-2.80488e+000
-1.39315e-005,-3.91089e-005,2.63672e-002,1.00098e-001,9.06738e-001,-1.68902e+001,1.28049e+000,-2.92683e+000
-9.39956e-006,-3.44091e-005,2.53906e-002,1.04980e-001,9.08691e-001,-1.71341e+001,1.09756e+000,-2.62195e+000
-2.18204e-006,-2.90379e-005,2.39258e-002,1.04980e-001,9.08691e-001,-1.72561e+001,1.34146e+000,-2.86585e+000
-8.39246e-006,-3.67590e-005,1.75781e-002,1.04004e-001,9.12109e-001,-1.73780e+001,7.31707e-001,-2.68293e+000
-1.30922e-005,-4.44800e-005,1.22070e-002,1.06934e-001,9.07715e-001,-1.70122e+001,7.31707e-001,-2.86585e+000
-1.02388e-005,5.20333e-006,1.36719e-002,1.06934e-001,9.10156e-001,-1.70122e+001,5.48781e-001,-2.92683e+000
-8.22461e-006,2.93736e-005,1.51367e-002,1.04004e-001,9.09668e-001,-1.69512e+001,5.48781e-001,-3.41463e+000
-6.88182e-006,2.40024e-005,1.66016e-002,1.02539e-001,9.11621e-001,-1.68902e+001,4.87805e-001,-2.80488e+000
-7.04967e-006,4.34730e-005,1.36719e-002,1.02539e-001,9.14063e-001,-1.71341e+001,3.04878e-001,-2.98780e+000
-5.87472e-006,2.73594e-005,1.56250e-002,9.96094e-002,9.12598e-001,-1.66463e+001,1.21951e-001,-3.04878e+000
-1.22530e-005,-6.21042e-006,1.41602e-002,1.05469e-001,9.13574e-001,-1.68902e+001,-6.09756e-002,-3.17073e+000
-1.09102e-005,-1.46029e-005,1.75781e-002,1.05469e-001,9.12598e-001,-1.67683e+001,-2.43902e-001,-3.04878e+000
-8.56031e-006,-1.51064e-005,1.75781e-002,1.06934e-001,9.10645e-001,-1.65854e+001,-4.26829e-001,-2.92683e+000
-9.56741e-006,-1.93027e-005,1.95313e-002,1.05469e-001,9.09180e-001,-1.65854e+001,-3.65854e-001,-2.92683e+000
-8.56031e-006,-1.99741e-005,1.70898e-002,1.04004e-001,9.14063e-001,-1.67683e+001,-3.04878e-001,-2.80488e+000
-6.88182e-006,-1.96384e-005,1.07422e-002,1.02539e-001,9.10645e-001,-1.64634e+001,-3.04878e-001,-2.86585e+000
-6.71397e-006,-1.57778e-005,1.17188e-002,9.57031e-002,9.10645e-001,-1.67073e+001,-4.87805e-001,-2.98780e+000
-9.23171e-006,-1.22530e-005,9.27734e-003,9.91211e-002,9.09668e-001,-1.66463e+001,-4.26829e-001,-2.92683e+000
-1.14137e-005,-5.03548e-006,1.07422e-002,9.71680e-002,9.12109e-001,-1.62195e+001,0.00000e+000,-2.98780e+000
-1.04067e-005,7.88891e-006,8.78906e-003,9.08203e-002,9.12109e-001,-1.60976e+001,-1.82927e-001,-2.62195e+000
-1.09102e-005,2.29953e-005,4.88281e-003,9.08203e-002,9.14551e-001,-1.60366e+001,0.00000e+000,-2.86585e+000
-1.10781e-005,2.26596e-005,9.27734e-003,9.37500e-002,9.06250e-001,-1.60976e+001,6.09756e-002,-2.86585e+000
-1.12459e-005,3.86053e-006,1.17188e-002,9.71680e-002,9.04785e-001,-1.59146e+001,1.82927e-001,-2.92683e+000
-1.15816e-005,-1.22530e-005,1.12305e-002,9.17969e-002,9.04297e-001,-1.62195e+001,1.82927e-001,-2.74390e+000
-1.29244e-005,-2.58488e-005,8.78906e-003,9.03320e-002,9.04297e-001,-1.60366e+001,4.26829e-001,-2.62195e+000
-1.51064e-005,-3.44091e-005,1.02539e-002,9.08203e-002,9.05273e-001,-1.57927e+001,9.14634e-001,-2.50000e+000
-1.42672e-005,-3.67590e-005,1.02539e-002,9.13086e-002,9.05273e-001,-1.57927e+001,9.75610e-001,-2.37805e+000
-1.35958e-005,-2.80308e-005,5.85938e-003,8.93555e-002,9.02832e-001,-1.62195e+001,1.28049e+000,-2.31707e+000
-1.35958e-005,-2.43381e-005,9.76563e-003,9.57031e-002,9.02832e-001,-1.59756e+001,1.34146e+000,-2.01220e+000
-1.22530e-005,-2.03098e-005,7.32422e-003,9.61914e-002,9.01855e-001,-1.61585e+001,1.46341e+000,-1.95122e+000
-8.05676e-006,-1.64492e-005,1.12305e-002,9.13086e-002,8.99414e-001,-1.60366e+001,1.52439e+000,-2.07317e+000
-7.72107e-006,-1.56100e-005,9.76563e-003,9.17969e-002,9.03320e-001,-1.62805e+001,1.70732e+000,-1.82927e+000
-9.23171e-006,-8.39246e-006,3.41797e-003,9.32617e-002,9.02832e-001,-1.64024e+001,1.82927e+000,-1.34146e+000
-9.06386e-006,-6.88182e-006,1.95313e-003,9.57031e-002,9.00391e-001,-1.65244e+001,1.95122e+000,-1.40244e+000
-1.14137e-005,-7.21752e-006,6.34766e-003,8.78906e-002,9.05762e-001,-1.62195e+001,2.01220e+000,-9.14634e-001
-1.02388e-005,-7.21752e-006,6.83594e-003,9.66797e-002,9.05273e-001,-1.63415e+001,1.82927e+000,-8.53659e-001
-8.56031e-006,-1.12459e-005,4.88281e-003,9.71680e-002,9.06250e-001,-1.68902e+001,1.95122e+000,-6.09756e-001
-8.56031e-006,-1.42672e-005,4.88281e-004,9.81445e-002,9.09180e-001,-1.66463e+001,1.64634e+000,-5.48781e-001
-9.56741e-006,-1.56100e-005,0.00000e+000,9.91211e-002,9.09180e-001,-1.65244e+001,1.58537e+000,-4.87805e-001
-7.55322e-006,-1.42672e-005,1.95313e-003,9.61914e-002,9.10156e-001,-1.64024e+001,1.52439e+000,-3.04878e-001
-6.71397e-006,-1.09102e-005,-4.88281e-003,9.47266e-002,9.13086e-001,-1.63415e+001,1.46341e+000,0.00000e+000
-9.56741e-006,-1.04067e-005,-1.46484e-003,9.13086e-002,9.12109e-001,-1.65244e+001,1.46341e+000,-6.09756e-002
-8.56031e-006,-1.19173e-005,9.76563e-004,9.37500e-002,9.13574e-001,-1.64024e+001,1.28049e+000,0.00000e+000
-8.22461e-006,-1.32601e-005,-2.44141e-003,9.61914e-002,9.12598e-001,-1.65854e+001,1.15854e+000,2.43902e-001
-9.90310e-006,-1.19173e-005,2.44141e-003,9.61914e-002,9.10645e-001,-1.64634e+001,9.75610e-001,3.04878e-001
-1.09102e-005,-9.23171e-006,-1.95313e-003,9.61914e-002,9.12598e-001,-1.64634e+001,9.75610e-001,2.43902e-001
-1.25887e-005,-7.04967e-006,9.76563e-004,9.57031e-002,9.12598e-001,-1.64024e+001,9.14634e-001,3.04878e-001
-1.15816e-005,-1.15816e-005,-4.88281e-004,9.71680e-002,9.10645e-001,-1.62195e+001,6.09756e-001,4.87805e-001
-1.22530e-005,-1.49386e-005,4.88281e-003,9.86328e-002,9.07227e-001,-1.59756e+001,5.48781e-001,3.65854e-001
-1.25887e-005,-1.54421e-005,-2.44141e-003,9.57031e-002,9.07227e-001,-1.62805e+001,1.82927e-001,3.65854e-001
-1.09102e-005,-9.56741e-006,1.46484e-003,9.91211e-002,9.05762e-001,-1.65244e+001,2.43902e-001,0.00000e+000
-8.39246e-006,-3.02129e-006,-9.76563e-004,1.01074e-001,9.05273e-001,-1.62195e+001,-1.21951e-001,1.21951e-001
-8.72816e-006,5.87472e-006,3.41797e-003,1.03516e-001,9.06250e-001,-1.60366e+001,-2.43902e-001,1.21951e-001
-7.55322e-006,1.39315e-005,6.34766e-003,1.03027e-001,9.01367e-001,-1.57927e+001,-1.82927e-001,1.82927e-001
-7.04967e-006,9.56741e-006,7.81250e-003,1.00586e-001,9.04297e-001,-1.63415e+001,-9.14634e-001,-6.09756e-002
-1.02388e-005,1.67849e-007,7.32422e-003,1.01563e-001,9.03320e-001,-1.64634e+001,-6.70732e-001,1.21951e-001
-8.22461e-006,-5.53903e-006,1.31836e-002,1.02539e-001,9.03320e-001,-1.62195e+001,-5.48781e-001,0.00000e+000
-5.70687e-006,-1.15816e-005,1.12305e-002,9.66797e-002,8.98926e-001,-1.60366e+001,-3.04878e-001,-3.04878e-001
-6.54612e-006,-1.77920e-005,1.17188e-002,9.81445e-002,8.96973e-001,-1.60976e+001,-1.21951e-001,-3.04878e-001
-7.21752e-006,-1.29244e-005,1.85547e-002,9.86328e-002,8.98438e-001,-1.65244e+001,0.00000e+000,0.00000e+000
-8.89601e-006,-4.86763e-006,1.17188e-002,1.00586e-001,8.97949e-001,-1.65244e+001,1.82927e-001,0.00000e+000
-1.35958e-005,-7.72107e-006,1.07422e-002,1.00586e-001,8.95020e-001,-1.66463e+001,1.21951e-001,6.09756e-002
-1.04067e-005,-1.22530e-005,1.12305e-002,1.02051e-001,8.93066e-001,-1.65244e+001,1.82927e-001,-6.09756e-002
-6.21042e-006,-1.05745e-005,4.39453e-003,9.76563e-002,8.94531e-001,-1.65244e+001,2.43902e-001,6.09756e-002
-6.54612e-006,-1.14137e-005,5.85938e-003,9.61914e-002,8.98926e-001,-1.65854e+001,4.26829e-001,6.09756e-002
-6.54612e-006,-1.02388e-005,7.32422e-003,1.00098e-001,8.98926e-001,-1.68293e+001,-1.82927e-001,1.82927e-001
-6.54612e-006,-2.16526e-005,3.41797e-003,1.04492e-001,8.99414e-001,-1.65854e+001,-3.04878e-001,-6.09756e-002
-7.21752e-006,-2.19883e-005,4.39453e-003,1.01074e-001,9.02344e-001,-1.64634e+001,-6.09756e-001,2.43902e-001
-8.56031e-006,-1.37636e-005,4.88281e-003,9.86328e-002,8.97461e-001,-1.70122e+001,-7.92683e-001,0.00000e+000
-8.39246e-006,-1.54421e-005,5.85938e-003,9.52148e-002,9.01367e-001,-1.68902e+001,-6.09756e-001,-6.09756e-002
-8.72816e-006,-1.35958e-005,4.39453e-003,9.13086e-002,9.02832e-001,-1.68293e+001,-4.26829e-001,1.21951e-001
-9.23171e-006,-3.69268e-006,5.85938e-003,9.37500e-002,9.04297e-001,-1.67073e+001,-5.48781e-001,6.09756e-002
-1.19173e-005,-4.86763e-006,4.39453e-003,9.27734e-002,9.08203e-001,-1.65854e+001,-9.14634e-001,-6.09756e-002
-1.22530e-005,-9.56741e-006,9.27734e-003,9.08203e-002,9.07227e-001,-1.65854e+001,-1.03659e+000,-6.09756e-002
-1.02388e-005,-5.20333e-006,8.78906e-003,8.98438e-002,9.04785e-001,-1.65244e+001,-1.15854e+000,-1.82927e-001
-9.56741e-006,-9.73526e-006,8.30078e-003,9.42383e-002,9.03320e-001,-1.63415e+001,-1.15854e+000,0.00000e+000
-5.87472e-006,-1.66171e-005,7.32422e-003,9.27734e-002,9.05273e-001,-1.62805e+001,-1.52439e+000,1.82927e-001
-8.39246e-006,-1.56100e-005,8.78906e-003,9.47266e-002,9.06250e-001,-1.66463e+001,-1.21951e+000,1.82927e-001
-1.07424e-005,-6.21042e-006,1.17188e-002,9.42383e-002,9.05273e-001,-1.60976e+001,-1.34146e+000,1.21951e-001
-1.22530e-005,-9.06386e-006,1.26953e-002,9.37500e-002,9.09180e-001,-1.60366e+001,-1.34146e+000,6.09756e-002
-1.32601e-005,-1.22530e-005,1.07422e-002,9.81445e-002,9.08691e-001,-1.63415e+001,-1.21951e+000,1.21951e-001
-1.22530e-005,-2.68559e-006,1.61133e-002,9.42383e-002,9.10156e-001,-1.60976e+001,-1.03659e+000,6.09756e-002
-1.09102e-005,7.55322e-006,1.85547e-002,9.37500e-002,9.09668e-001,-1.60366e+001,-1.28049e+000,1.21951e-001
-8.22461e-006,1.47707e-005,1.51367e-002,9.81445e-002,9.07227e-001,-1.57927e+001,-8.53659e-001,1.82927e-001
-7.55322e-006,1.42672e-005,2.00195e-002,9.66797e-002,9.13574e-001,-1.61585e+001,-7.31707e-001,4.87805e-001
-6.54612e-006,1.56100e-005,2.19727e-002,9.91211e-002,9.12598e-001,-1.59756e+001,-3.04878e-001,4.87805e-001
-6.88182e-006,1.67849e-007,2.78320e-002,9.66797e-002,9.15039e-001,-1.59756e+001,0.00000e+000,5.48781e-001
-9.23171e-006,-9.39956e-006,2.34375e-002,9.27734e-002,9.13574e-001,-1.60366e+001,6.09756e-002,3.65854e-001
-9.23171e-006,-1.29244e-005,2.83203e-002,9.71680e-002,9.10156e-001,-1.60366e+001,6.09756e-001,7.31707e-001
-1.02388e-005,-1.19173e-005,2.29492e-002,9.86328e-002,9.10645e-001,-1.61585e+001,9.14634e-001,6.09756e-001
-1.12459e-005,-1.25887e-005,2.49023e-002,1.01074e-001,9.08203e-001,-1.59756e+001,1.28049e+000,3.04878e-001
-9.56741e-006,-1.25887e-005,2.53906e-002,9.91211e-002,9.03809e-001,-1.62805e+001,1.52439e+000,4.87805e-001
-7.04967e-006,-8.89601e-006,2.19727e-002,9.61914e-002,9.04785e-001,-1.62195e+001,1.95122e+000,6.09756e-001
-7.38537e-006,-1.67849e-006,2.19727e-002,9.57031e-002,9.06250e-001,-1.61585e+001,2.01220e+000,5.48781e-001
-1.05745e-005,5.03548e-007,2.19727e-002,9.57031e-002,9.00391e-001,-1.62805e+001,2.25610e+000,6.70732e-001
-1.22530e-005,-4.36408e-006,2.09961e-002,9.22852e-002,8.99902e-001,-1.61585e+001,2.56098e+000,7.31707e-001
-1.35958e-005,-1.12459e-005,1.61133e-002,9.17969e-002,9.00879e-001,-1.62195e+001,2.56098e+000,6.70732e-001
-1.44350e-005,-1.42672e-005,1.85547e-002,9.17969e-002,8.97949e-001,-1.65244e+001,2.80488e+000,8.53659e-001
-1.27565e-005,-1.56100e-005,1.90430e-002,9.08203e-002,9.00879e-001,-1.63415e+001,2.56098e+000,9.14634e-001
-9.73526e-006,-1.56100e-005,1.61133e-002,9.42383e-002,8.97461e-001,-1.64634e+001,2.86585e+000,1.03659e+000
-1.09102e-005,-1.49386e-005,2.00195e-002,8.98438e-002,9.00391e-001,-1.67073e+001,2.50000e+000,1.09756e+000
-1.22530e-005,-1.96384e-005,1.26953e-002,8.98438e-002,8.96973e-001,-1.66463e+001,2.62195e+000,1.03659e+000
-1.17494e-005,-2.09812e-005,1.36719e-002,9.17969e-002,8.97461e-001,-1.67683e+001,2.43902e+000,1.34146e+000
-7.55322e-006,-1.69528e-005,1.12305e-002,8.78906e-002,8.96973e-001,-1.66463e+001,2.56098e+000,1.09756e+000
-7.72107e-006,-1.46029e-005,1.56250e-002,8.69141e-002,9.00879e-001,-1.66463e+001,2.31707e+000,1.15854e+000
-6.88182e-006,-1.49386e-005,1.41602e-002,8.98438e-002,8.98438e-001,-1.66463e+001,2.50000e+000,9.75610e-001
-8.22461e-006,-8.22461e-006,1.61133e-002,9.22852e-002,8.96484e-001,-1.68902e+001,2.13415e+000,1.09756e+000
-1.02388e-005,-8.39246e-006,1.85547e-002,9.37500e-002,8.98438e-001,-1.67683e+001,1.89024e+000,1.28049e+000
-9.56741e-006,-1.86313e-005,8.78906e-003,9.08203e-002,8.98926e-001,-1.71341e+001,1.52439e+000,1.15854e+000
-1.12459e-005,-2.13169e-005,1.17188e-002,9.37500e-002,8.97949e-001,-1.71951e+001,1.34146e+000,1.09756e+000
-1.22530e-005,-1.81277e-005,1.41602e-002,9.61914e-002,9.00391e-001,-1.71951e+001,9.75610e-001,9.75610e-001
-1.29244e-005,-2.23239e-005,1.41602e-002,8.93555e-002,9.01367e-001,-1.68293e+001,9.75610e-001,1.15854e+000
-8.89601e-006,-3.20592e-005,1.36719e-002,9.27734e-002,9.01367e-001,-1.68293e+001,1.21951e-001,8.53659e-001
-6.37827e-006,-3.50805e-005,1.36719e-002,9.52148e-002,9.04297e-001,-1.68293e+001,-5.48781e-001,1.09756e+000
-9.73526e-006,-3.42412e-005,2.05078e-002,9.32617e-002,9.04297e-001,-1.68293e+001,-6.70732e-001,9.75610e-001
-1.30922e-005,-3.00450e-005,1.80664e-002,9.42383e-002,9.08691e-001,-1.65854e+001,-9.75610e-001,7.31707e-001
-1.46029e-005,-1.82956e-005,1.85547e-002,9.37500e-002,9.07715e-001,-1.67683e+001,-9.75610e-001,8.53659e-001
-1.52743e-005,-1.02388e-005,2.44141e-002,9.57031e-002,9.08203e-001,-1.65244e+001,-1.46341e+000,5.48781e-001
-9.90310e-006,-1.02388e-005,2.63672e-002,9.76563e-002,9.13086e-001,-1.62805e+001,-1.34146e+000,4.87805e-001
-1.32601e-005,-8.89601e-006,3.07617e-002,9.32617e-002,9.15527e-001,-1.67073e+001,-1.34146e+000,5.48781e-001
-1.19173e-005,-3.35698e-006,2.29492e-002,9.03320e-002,9.10156e-001,-1.71341e+001,-1.34146e+000,6.70732e-001
-6.71397e-006,8.72816e-006,2.19727e-002,8.93555e-002,9.11133e-001,-1.66463e+001,-1.40244e+000,7.92683e-001
-7.21752e-006,8.22461e-006,2.97852e-002,9.13086e-002,9.16504e-001,-1.67683e+001,-1.34146e+000,3.65854e-001
-8.22461e-006,2.51774e-006,2.83203e-002,9.22852e-002,9.11133e-001,-1.64024e+001,-1.15854e+000,4.26829e-001
-8.39246e-006,-1.67849e-006,2.88086e-002,9.17969e-002,9.15527e-001,-1.64024e+001,-1.28049e+000,6.09756e-001
-8.89601e-006,-6.54612e-006,2.78320e-002,8.98438e-002,9.16504e-001,-1.62195e+001,-1.03659e+000,4.87805e-001
-1.12459e-005,-6.54612e-006,3.17383e-002,9.08203e-002,9.16992e-001,-1.64634e+001,-1.09756e+000,5.48781e-001
-1.25887e-005,-4.86763e-006,2.83203e-002,9.17969e-002,9.21875e-001,-1.64634e+001,-9.75610e-001,6.09756e-001
-1.15816e-005,-8.56031e-006,2.97852e-002,9.52148e-002,9.16992e-001,-1.62805e+001,-4.87805e-001,4.87805e-001
-9.90310e-006,-6.54612e-006,3.61328e-002,9.37500e-002,9.12598e-001,-1.62805e+001,-6.09756e-001,3.04878e-001
-9.23171e-006,8.39246e-007,3.61328e-002,9.76563e-002,9.11133e-001,-1.62805e+001,-3.04878e-001,5.48781e-001
-9.90310e-006,3.86053e-006,3.61328e-002,9.42383e-002,9.11621e-001,-1.60976e+001,-4.26829e-001,7.31707e-001
-9.73526e-006,5.03548e-007,4.00391e-002,9.32617e-002,9.13086e-001,-1.63415e+001,-1.82927e-001,7.92683e-001
-8.22461e-006,3.18914e-006,3.61328e-002,9.32617e-002,9.14551e-001,-1.62195e+001,1.21951e-001,8.53659e-001
-1.09102e-005,1.40993e-005,3.32031e-002,9.37500e-002,9.13086e-001,-1.63415e+001,1.21951e-001,8.53659e-001
-1.02388e-005,2.88701e-005,3.66211e-002,9.57031e-002,9.13086e-001,-1.62195e+001,0.00000e+000,5.48781e-001
-7.55322e-006,2.60166e-005,3.71094e-002,9.86328e-002,9.15039e-001,-1.61585e+001,2.43902e-001,7.31707e-001
-8.22461e-006,8.56031e-006,3.22266e-002,9.66797e-002,9.14063e-001,-1.62195e+001,1.82927e-001,6.09756e-001
-1.15816e-005,-2.51774e-006,3.71094e-002,9.37500e-002,9.15527e-001,-1.60366e+001,3.04878e-001,7.92683e-001
-1.25887e-005,-9.56741e-006,3.56445e-002,9.42383e-002,9.17969e-001,-1.59756e+001,6.09756e-002,7.92683e-001
-9.73526e-006,-1.49386e-005,3.22266e-002,9.76563e-002,9.15039e-001,-1.60366e+001,-6.09756e-002,6.09756e-001
-3.18914e-006,-1.89670e-005,3.61328e-002,9.81445e-002,9.13086e-001,-1.60976e+001,-1.82927e-001,8.53659e-001
-8.56031e-006,-1.76242e-005,3.12500e-002,9.66797e-002,9.13574e-001,-1.60366e+001,-2.43902e-001,6.70732e-001
-1.77920e-005,-1.89670e-005,3.71094e-002,9.96094e-002,9.15039e-001,-1.59756e+001,-1.21951e-001,7.92683e-001
-1.49386e-005,-1.89670e-005,4.00391e-002,1.04492e-001,9.16504e-001,-1.60976e+001,1.82927e-001,6.70732e-001
-1.24208e-005,-1.82956e-005,3.90625e-002,1.00586e-001,9.17969e-001,-1.59146e+001,2.43902e-001,7.31707e-001
-1.15816e-005,-1.42672e-005,4.39453e-002,1.03027e-001,9.16504e-001,-1.59146e+001,6.09756e-002,4.26829e-001
-1.00710e-005,-1.82956e-005,4.00391e-002,9.91211e-002,9.15039e-001,-1.60976e+001,-6.09756e-002,7.31707e-001
-1.25887e-005,-1.79599e-005,4.34570e-002,1.04980e-001,9.22363e-001,-1.58537e+001,3.04878e-001,8.53659e-001
-1.04067e-005,-1.59457e-005,4.00391e-002,1.03516e-001,9.21875e-001,-1.59756e+001,6.09756e-002,6.09756e-001
-1.10781e-005,-1.77920e-005,4.34570e-002,1.06934e-001,9.18945e-001,-1.59146e+001,-3.04878e-001,4.87805e-001
-1.09102e-005,-2.18204e-005,3.36914e-002,1.00586e-001,9.23340e-001,-1.56707e+001,-5.48781e-001,4.26829e-001
-1.39315e-005,-1.71206e-005,3.12500e-002,9.81445e-002,9.19434e-001,-1.57927e+001,-3.65854e-001,5.48781e-001
-1.47707e-005,-1.29244e-005,2.88086e-002,9.32617e-002,9.18457e-001,-1.59146e+001,-5.48781e-001,4.87805e-001
-1.35958e-005,-1.02388e-005,3.12500e-002,9.81445e-002,9.17969e-001,-1.59146e+001,-3.65854e-001,4.87805e-001
-9.73526e-006,3.52483e-006,3.75977e-002,1.04492e-001,9.19922e-001,-1.57317e+001,-6.09756e-001,3.65854e-001
-1.15816e-005,1.02388e-005,3.71094e-002,1.02539e-001,9.21875e-001,-1.56098e+001,-6.70732e-001,1.82927e-001
-1.02388e-005,-4.86763e-006,3.90625e-002,1.03027e-001,9.15039e-001,-1.52439e+001,-8.53659e-001,6.09756e-002
-9.06386e-006,-1.44350e-005,3.85742e-002,9.96094e-002,9.16016e-001,-1.54878e+001,-7.92683e-001,6.09756e-002
-8.56031e-006,-8.89601e-006,3.95508e-002,1.02051e-001,9.14551e-001,-1.54268e+001,-7.31707e-001,-2.43902e-001
-6.71397e-006,-1.05745e-005,3.41797e-002,9.91211e-002,9.17969e-001,-1.54878e+001,-6.09756e-001,-2.43902e-001
-1.17494e-006,-9.73526e-006,3.12500e-002,9.66797e-002,9.16992e-001,-1.54268e+001,-4.87805e-001,-4.26829e-001
-8.39246e-007,1.67849e-007,3.51563e-002,1.02051e-001,9.13574e-001,-1.57317e+001,-3.04878e-001,-5.48781e-001
-4.19623e-006,5.87472e-006,3.71094e-002,1.01563e-001,9.15527e-001,-1.56098e+001,-6.09756e-002,-3.04878e-001
-6.21042e-006,1.04067e-005,3.75977e-002,9.86328e-002,9.07227e-001,-1.55488e+001,3.04878e-001,-5.48781e-001
-7.55322e-006,3.18914e-006,3.46680e-002,9.96094e-002,9.11133e-001,-1.56707e+001,2.43902e-001,-5.48781e-001
-1.15816e-005,-1.71206e-005,3.36914e-002,1.00586e-001,9.02832e-001,-1.56707e+001,3.65854e-001,-3.65854e-001
-1.35958e-005,-9.90310e-006,3.27148e-002,1.05469e-001,9.07227e-001,-1.56707e+001,4.87805e-001,-6.09756e-001
-1.46029e-005,-6.88182e-006,3.32031e-002,1.02051e-001,9.10156e-001,-1.57317e+001,7.92683e-001,-7.31707e-001
-1.19173e-005,-3.20592e-005,3.02734e-002,9.91211e-002,9.10156e-001,-1.56707e+001,3.65854e-001,-6.09756e-001
-9.56741e-006,-4.02838e-005,3.51563e-002,9.61914e-002,9.05273e-001,-1.54878e+001,6.70732e-001,-7.31707e-001
-7.88891e-006,-3.99481e-005,3.02734e-002,1.00586e-001,9.08691e-001,-1.53049e+001,4.87805e-001,-7.31707e-001
-7.55322e-006,-2.93736e-005,3.12500e-002,1.01563e-001,9.07715e-001,-1.54268e+001,5.48781e-001,-4.26829e-001
-6.54612e-006,-1.02388e-005,2.44141e-002,9.76563e-002,9.07715e-001,-1.53659e+001,3.65854e-001,-8.53659e-001
-8.89601e-006,-1.02388e-005,2.14844e-002,1.01563e-001,9.08203e-001,-1.54878e+001,1.82927e-001,-7.92683e-001
-1.05745e-005,-1.46029e-005,2.73438e-002,1.03027e-001,9.10156e-001,-1.49390e+001,6.09756e-002,-1.03659e+000
-1.10781e-005,-1.91348e-005,2.14844e-002,1.02539e-001,9.07715e-001,-1.53049e+001,-4.26829e-001,-1.03659e+000
-1.02388e-005,-2.06455e-005,2.53906e-002,9.91211e-002,9.09180e-001,-1.52439e+001,-6.70732e-001,-1.03659e+000
-8.05676e-006,-1.76242e-005,2.73438e-002,9.76563e-002,9.13086e-001,-1.50610e+001,-7.31707e-001,-9.75610e-001
-6.88182e-006,-1.87991e-005,2.29492e-002,1.05469e-001,9.09668e-001,-1.46951e+001,-9.75610e-001,-1.21951e+000
-6.37827e-006,-1.09102e-005,2.88086e-002,1.06934e-001,9.05762e-001,-1.49390e+001,-7.31707e-001,-1.46341e+000
-8.89601e-006,-1.10781e-005,3.27148e-002,1.08398e-001,9.08691e-001,-1.50000e+001,-7.92683e-001,-1.58537e+000
-9.90310e-006,-8.22461e-006,3.02734e-002,1.04980e-001,9.06250e-001,-1.47561e+001,-6.09756e-001,-1.58537e+000
-9.73526e-006,3.86053e-006,2.68555e-002,1.07422e-001,9.04785e-001,-1.48780e+001,-9.14634e-001,-1.82927e+000
-9.23171e-006,-3.35698e-007,2.83203e-002,1.03516e-001,9.05762e-001,-1.49390e+001,-7.92683e-001,-1.70732e+000
-6.37827e-006,9.90310e-006,2.63672e-002,1.06934e-001,9.07227e-001,-1.47561e+001,-8.53659e-001,-1.46341e+000
-2.51774e-006,2.23239e-005,3.27148e-002,1.08887e-001,9.06738e-001,-1.46951e+001,-4.87805e-001,-1.58537e+000
-7.55322e-006,-6.21042e-006,3.22266e-002,1.07422e-001,9.07715e-001,-1.51220e+001,-1.82927e-001,-1.89024e+000
-1.15816e-005,-2.36667e-005,2.68555e-002,1.04980e-001,9.05273e-001,-1.53049e+001,-2.43902e-001,-1.95122e+000
-8.22461e-006,-2.76951e-005,2.97852e-002,1.04492e-001,9.06250e-001,-1.53049e+001,-1.21951e-001,-1.95122e+000
-1.00710e-005,-2.45060e-005,2.58789e-002,1.08398e-001,9.07227e-001,-1.55488e+001,-1.82927e-001,-2.13415e+000
-1.27565e-005,-1.09102e-005,2.68555e-002,1.05469e-001,9.05762e-001,-1.54268e+001,0.00000e+000,-2.13415e+000
-1.15816e-005,1.17494e-006,2.39258e-002,1.05469e-001,9.07227e-001,-1.53659e+001,6.09756e-001,-2.07317e+000
-6.04257e-006,1.05745e-005,2.49023e-002,1.06934e-001,9.05762e-001,-1.54878e+001,1.03659e+000,-1.95122e+000
-2.85344e-006,5.53903e-006,2.44141e-002,1.05469e-001,9.05273e-001,-1.55488e+001,7.31707e-001,-1.89024e+000
-6.21042e-006,-6.88182e-006,2.34375e-002,1.11816e-001,9.06250e-001,-1.56707e+001,9.75610e-001,-1.82927e+000
-6.04257e-006,-2.70237e-005,2.58789e-002,1.07422e-001,9.01367e-001,-1.61585e+001,1.09756e+000,-2.13415e+000
-7.21752e-006,-3.13878e-005,1.90430e-002,1.10352e-001,9.06250e-001,-1.57317e+001,1.40244e+000,-1.95122e+000
-5.20333e-006,2.80308e-005,2.09961e-002,1.00098e-001,9.04297e-001,-1.57927e+001,1.46341e+000,-2.01220e+000
-8.89601e-006,5.32082e-005,2.24609e-002,9.81445e-002,9.07227e-001,-1.56707e+001,1.70732e+000,-1.95122e+000
-7.88891e-006,1.46029e-005,2.24609e-002,1.00098e-001,9.02344e-001,-1.55488e+001,1.64634e+000,-2.07317e+000
-8.89601e-006,-5.37118e-006,2.14844e-002,1.04492e-001,9.04297e-001,-1.57927e+001,1.76829e+000,-1.89024e+000
-1.05745e-005,-1.09102e-005,2.39258e-002,1.00586e-001,9.01367e-001,-1.58537e+001,1.76829e+000,-2.07317e+000
-1.14137e-005,-2.23239e-005,1.95313e-002,1.00586e-001,8.98438e-001,-1.57317e+001,2.07317e+000,-1.89024e+000
-1.19173e-005,-2.68559e-005,2.14844e-002,9.86328e-002,8.98926e-001,-1.56098e+001,1.95122e+000,-1.95122e+000
-1.09102e-005,-2.18204e-005,1.95313e-002,9.57031e-002,8.95020e-001,-1.57317e+001,2.25610e+000,-1.95122e+000
-1.12459e-005,-2.16526e-005,1.22070e-002,1.01074e-001,8.95996e-001,-1.59146e+001,2.19512e+000,-1.64634e+000
-1.32601e-005,-2.48417e-005,1.17188e-002,9.96094e-002,8.99414e-001,-1.58537e+001,2.01220e+000,-1.52439e+000
-1.25887e-005,-2.33310e-005,9.76563e-003,9.96094e-002,8.95996e-001,-1.59756e+001,2.13415e+000,-1.52439e+000
-1.35958e-005,-1.96384e-005,1.02539e-002,9.47266e-002,8.94043e-001,-1.59756e+001,1.82927e+000,-1.21951e+000
-1.40993e-005,-1.76242e-005,1.41602e-002,9.91211e-002,8.94043e-001,-1.58537e+001,2.01220e+000,-1.46341e+000
-1.32601e-005,-1.22530e-005,7.32422e-003,1.02051e-001,8.97949e-001,-1.59146e+001,1.89024e+000,-1.40244e+000
-1.25887e-005,-1.15816e-005,7.81250e-003,1.00586e-001,8.96484e-001,-1.59756e+001,1.76829e+000,-1.15854e+000
-1.12459e-005,-1.05745e-005,5.85938e-003,9.96094e-002,8.95508e-001,-1.57927e+001,9.14634e-001,-9.75610e-001
-1.00710e-005,-8.22461e-006,1.07422e-002,1.01563e-001,8.96484e-001,-1.60976e+001,1.15854e+000,-9.14634e-001
-1.22530e-005,-7.04967e-006,6.34766e-003,1.02539e-001,8.92578e-001,-1.59756e+001,1.28049e+000,-9.75610e-001
-1.44350e-005,-7.04967e-006,1.07422e-002,1.03516e-001,8.93555e-001,-1.62195e+001,1.03659e+000,-9.14634e-001
-1.67849e-005,-5.53903e-006,6.34766e-003,1.04004e-001,8.95996e-001,-1.59146e+001,1.09756e+000,-7.92683e-001
-1.64492e-005,-1.00710e-006,2.92969e-003,1.02539e-001,8.92578e-001,-1.59146e+001,4.87805e-001,-5.48781e-001
-1.09102e-005,-1.67849e-006,1.95313e-003,1.03516e-001,8.94043e-001,-1.60366e+001,0.00000e+000,-7.31707e-001
-9.90310e-006,-9.73526e-006,8.30078e-003,1.01563e-001,8.93066e-001,-1.59146e+001,-4.26829e-001,-6.09756e-001
-1.32601e-005,-2.31632e-005,7.81250e-003,1.02539e-001,8.92090e-001,-1.59756e+001,-3.04878e-001,-5.48781e-001
-9.56741e-006,-2.66880e-005,7.81250e-003,1.06445e-001,8.99902e-001,-1.57927e+001,-7.31707e-001,-6.09756e-001
-1.10781e-005,-2.71916e-005,8.78906e-003,1.03027e-001,9.00391e-001,-1.58537e+001,-7.31707e-001,-7.92683e-001
-1.40993e-005,-2.60166e-005,9.76563e-003,1.08398e-001,9.00879e-001,-1.58537e+001,-1.34146e+000,-4.87805e-001
-1.30922e-005,-2.56809e-005,1.22070e-002,1.08887e-001,9.05762e-001,-1.56098e+001,-1.34146e+000,-5.48781e-001
-9.73526e-006,-2.33310e-005,1.61133e-002,1.08398e-001,9.05762e-001,-1.56098e+001,-1.09756e+000,-4.87805e-001
-1.02388e-005,-1.52743e-005,1.17188e-002,1.06934e-001,9.04297e-001,-1.56707e+001,-1.15854e+000,-2.43902e-001
-1.22530e-005,6.71397e-007,1.56250e-002,1.04980e-001,9.06250e-001,-1.57927e+001,-1.09756e+000,-3.65854e-001
-1.14137e-005,1.46029e-005,1.90430e-002,1.06934e-001,9.07715e-001,-1.56707e+001,-9.75610e-001,-5.48781e-001
-8.56031e-006,2.50095e-005,1.95313e-002,1.04492e-001,9.07227e-001,-1.57927e+001,-9.75610e-001,-6.09756e-001
-1.22530e-005,1.93027e-005,1.66016e-002,1.03516e-001,9.11621e-001,-1.55488e+001,-8.53659e-001,-7.92683e-001
-1.30922e-005,7.04967e-006,1.41602e-002,1.04004e-001,9.10156e-001,-1.55488e+001,-9.14634e-001,-8.53659e-001
-9.73526e-006,6.21042e-006,1.95313e-002,1.03516e-001,9.05273e-001,-1.59756e+001,-5.48781e-001,-8.53659e-001
-5.70687e-006,8.22461e-006,2.24609e-002,1.01563e-001,9.08203e-001,-1.56707e+001,-3.65854e-001,-6.70732e-001
-6.88182e-006,1.30922e-005,2.44141e-002,1.08887e-001,9.06250e-001,-1.58537e+001,-1.21951e-001,-7.31707e-001
-9.73526e-006,1.25887e-005,1.85547e-002,1.03027e-001,9.09180e-001,-1.58537e+001,1.21951e-001,-7.31707e-001
-1.22530e-005,9.23171e-006,1.70898e-002,1.03027e-001,9.06738e-001,-1.58537e+001,6.09756e-001,-9.75610e-001
-1.09102e-005,5.20333e-006,1.90430e-002,1.01074e-001,9.06738e-001,-1.59756e+001,6.70732e-001,-9.75610e-001
-1.15816e-005,-4.19623e-006,2.53906e-002,1.01563e-001,9.04297e-001,-1.59756e+001,6.09756e-001,-9.14634e-001
-8.89601e-006,-1.35958e-005,2.00195e-002,1.00098e-001,9.04297e-001,-1.56707e+001,1.09756e+000,-9.75610e-001
-4.36408e-006,-2.03098e-005,1.85547e-002,1.00586e-001,9.03320e-001,-1.57927e+001,1.28049e+000,-9.75610e-001
-6.04257e-006,-2.50095e-005,1.85547e-002,1.02051e-001,9.09180e-001,-1.57927e+001,1.70732e+000,-5.48781e-001
-1.02388e-005,-2.50095e-005,1.95313e-002,1.01074e-001,9.10645e-001,-1.56707e+001,1.82927e+000,-6.70732e-001
-7.88891e-006,-2.09812e-005,1.85547e-002,1.05469e-001,9.10645e-001,-1.60976e+001,2.13415e+000,-4.26829e-001
-3.52483e-006,-2.09812e-005,2.00195e-002,1.02539e-001,9.13086e-001,-1.58537e+001,2.13415e+000,-5.48781e-001
-7.55322e-006,-2.60166e-005,1.75781e-002,1.03027e-001,9.16016e-001,-1.56707e+001,2.19512e+000,-3.04878e-001
-7.72107e-006,-3.40734e-005,1.07422e-002,1.12305e-001,9.13574e-001,-1.61585e+001,2.37805e+000,-3.04878e-001
-7.21752e-006,-3.44091e-005,1.07422e-002,1.09375e-001,9.12598e-001,-1.62195e+001,2.50000e+000,-1.82927e-001
-7.55322e-006,-3.57519e-005,1.41602e-002,1.07422e-001,9.16016e-001,-1.64634e+001,2.43902e+000,-1.21951e-001
-8.72816e-006,-3.50805e-005,1.31836e-002,1.08887e-001,9.16992e-001,-1.62195e+001,2.13415e+000,0.00000e+000
-1.02388e-005,-2.97093e-005,9.76563e-003,1.12305e-001,9.14063e-001,-1.62805e+001,2.19512e+000,1.82927e-001
-8.72816e-006,-6.54612e-006,1.12305e-002,1.14258e-001,9.18457e-001,-1.62805e+001,2.13415e+000,2.43902e-001
-1.02388e-005,1.15816e-005,1.22070e-002,1.18164e-001,9.15039e-001,-1.65244e+001,2.31707e+000,6.09756e-001
-1.12459e-005,3.52483e-006,8.78906e-003,1.23047e-001,9.15527e-001,-1.62805e+001,2.56098e+000,7.92683e-001
-7.88891e-006,-3.18914e-006,9.76563e-003,1.28906e-001,9.20898e-001,-1.62805e+001,2.25610e+000,4.87805e-001
-9.23171e-006,-4.36408e-006,1.12305e-002,1.34277e-001,9.21875e-001,-1.65854e+001,2.25610e+000,7.31707e-001
-8.89601e-006,-9.56741e-006,1.02539e-002,1.38672e-001,9.21387e-001,-1.67683e+001,2.37805e+000,8.53659e-001
-1.05745e-005,-1.22530e-005,1.70898e-002,1.43066e-001,9.14551e-001,-1.80488e+001,2.56098e+000,1.09756e+000
-1.22530e-005,-1.25887e-005,2.00195e-002,1.48438e-001,9.12598e-001,-1.85976e+001,2.56098e+000,1.34146e+000
-1.12459e-005,-1.04067e-005,3.56445e-002,1.50879e-001,9.10156e-001,-1.87805e+001,3.23171e+000,1.21951e+000
-5.70687e-006,-5.53903e-006,4.44336e-002,1.49414e-001,9.07715e-001,-1.92073e+001,3.35366e+000,1.15854e+000
-5.03548e-006,2.18204e-006,5.37109e-002,1.49902e-001,9.03809e-001,-1.94512e+001,4.75610e+000,1.28049e+000
-1.02388e-005,1.22530e-005,5.46875e-002,1.51855e-001,9.02832e-001,-1.96341e+001,5.24390e+000,1.03659e+000
-7.88891e-006,1.56100e-005,4.88281e-002,1.53320e-001,8.95508e-001,-1.98780e+001,6.28049e+000,1.03659e+000
-8.56031e-006,-3.86053e-006,4.73633e-002,1.61133e-001,8.96973e-001,-2.03049e+001,7.37805e+000,9.14634e-001
-9.23171e-006,-1.89670e-005,4.05273e-002,1.58203e-001,8.92578e-001,-2.01220e+001,7.68293e+000,8.53659e-001
-1.12459e-005,-2.11490e-005,3.51563e-002,1.57715e-001,8.85742e-001,-2.03049e+001,8.10976e+000,6.09756e-001
-9.56741e-006,-1.79599e-005,2.63672e-002,1.54785e-001,8.88184e-001,-2.00610e+001,8.04878e+000,4.87805e-001
-6.21042e-006,-2.03098e-005,1.02539e-002,1.46484e-001,8.87695e-001,-1.93902e+001,7.07317e+000,5.48781e-001
-7.55322e-006,-2.50095e-005,-5.37109e-003,1.37695e-001,8.97461e-001,-1.85366e+001,6.28049e+000,3.65854e-001
-1.02388e-005,-2.03098e-005,-4.05273e-002,1.21582e-001,9.10156e-001,-1.73780e+001,4.63415e+000,6.70732e-001
-1.29244e-005,-6.88182e-006,-5.66406e-002,1.12305e-001,9.16016e-001,-1.66463e+001,3.53659e+000,9.14634e-001
-1.12459e-005,8.39246e-006,-8.34961e-002,9.76563e-002,9.26270e-001,-1.51829e+001,1.95122e+000,1.21951e+000
-1.14137e-005,2.63523e-005,-8.93555e-002,9.86328e-002,9.28711e-001,-1.43293e+001,-2.43902e-001,1.70732e+000
-9.73526e-006,3.44091e-005,-8.74023e-002,9.86328e-002,9.32617e-001,-1.37805e+001,-1.64634e+000,1.70732e+000
-1.09102e-005,1.66171e-005,-7.27539e-002,9.91211e-002,9.31641e-001,-1.23171e+001,-3.84146e+000,1.64634e+000
-1.02388e-005,-1.51064e-006,-5.76172e-002,1.06445e-001,9.25293e-001,-1.18293e+001,-5.36585e+000,1.21951e+000
-1.14137e-005,-1.40993e-005,-2.73438e-002,1.14258e-001,9.16992e-001,-1.09146e+001,-6.76829e+000,4.26829e-001
-9.90310e-006,-2.38346e-005,-1.12305e-002,1.20117e-001,9.13086e-001,-1.05488e+001,-7.31707e+000,0.00000e+000
-1.09102e-005,-2.58488e-005,1.31836e-002,1.25000e-001,9.14063e-001,-1.00610e+001,-7.62195e+000,-5.48781e-001
-1.22530e-005,-2.43381e-005,1.90430e-002,1.27930e-001,9.17480e-001,-1.00610e+001,-7.50000e+000,-6.09756e-001
-1.42672e-005,-1.81277e-005,3.17383e-002,1.25488e-001,9.12598e-001,-9.69512e+000,-6.28049e+000,-7.92683e-001
-1.35958e-005,-1.72885e-005,1.70898e-002,1.31348e-001,8.98438e-001,-1.03049e+001,-5.12195e+000,-1.03659e+000
-1.22530e-005,-1.57778e-005,1.17188e-002,1.28418e-001,8.93066e-001,-1.04268e+001,-4.87805e+000,-1.28049e+000
-1.22530e-005,-1.29244e-005,4.39453e-003,1.22559e-001,8.90625e-001,-1.04268e+001,-4.02439e+000,-1.21951e+000
-1.15816e-005,-1.05745e-005,-7.32422e-003,1.21094e-001,8.85254e-001,-1.06707e+001,-4.08537e+000,-1.28049e+000
-7.04967e-006,-1.52743e-005,-1.95313e-002,1.15723e-001,8.75977e-001,-1.05488e+001,-3.53659e+000,-9.14634e-001
-1.00710e-005,-1.52743e-005,-2.58789e-002,1.08398e-001,8.82324e-001,-1.07927e+001,-3.53659e+000,-9.75610e-001
-1.42672e-005,-1.42672e-005,-4.19922e-002,1.08398e-001,8.88184e-001,-1.03049e+001,-3.96341e+000,-6.09756e-001
-1.56100e-005,-1.05745e-005,-5.32227e-002,1.04004e-001,8.93555e-001,-9.75610e+000,-5.30488e+000,0.00000e+000
-1.51064e-005,-1.04067e-005,-9.13086e-002,9.42383e-002,9.05762e-001,-8.35366e+000,-8.53659e+000,7.31707e-001
-1.15816e-005,-1.05745e-005,-1.26953e-001,9.17969e-002,9.08203e-001,-7.31707e+000,-1.21341e+001,1.70732e+000
-1.29244e-005,-1.25887e-005,-1.44531e-001,8.25195e-002,9.11133e-001,-6.76829e+000,-1.42073e+001,2.43902e+000
-1.37636e-005,-6.37827e-006,-1.66992e-001,7.12891e-002,9.30176e-001,-4.39024e+000,-1.85976e+001,3.47561e+000
-1.17494e-005,-6.54612e-006,-1.74316e-001,6.68945e-002,9.33594e-001,-3.29268e+000,-2.12805e+001,3.96341e+000
-8.72816e-006,-1.22530e-005,-1.76758e-001,6.39648e-002,9.17480e-001,-1.70732e+000,-2.67073e+001,4.39024e+000
-7.88891e-006,-1.29244e-005,-1.69434e-001,7.03125e-002,8.91113e-001,-2.01220e+000,-2.93902e+001,4.69512e+000
-1.22530e-005,-1.40993e-005,-1.43066e-001,1.02539e-001,8.33984e-001,-3.65854e+000,-3.29268e+001,4.57317e+000
-7.88891e-006,-1.02388e-005,-1.12305e-001,1.22559e-001,8.07617e-001,-4.08537e+000,-3.47561e+001,4.69512e+000
-7.72107e-006,-1.04067e-005,-4.93164e-002,1.60645e-001,7.51953e-001,-4.14634e+000,-4.09146e+001,4.14634e+000
-1.09102e-005,-7.88891e-006,1.61133e-002,1.93848e-001,6.98242e-001,-4.14634e+000,-4.46341e+001,3.23171e+000
-1.05745e-005,-3.35698e-006,4.88281e-002,2.03125e-001,6.67969e-001,-4.14634e+000,-5.15854e+001,1.09756e+000
-1.02388e-005,0.00000e+000,1.07422e-001,2.16797e-001,6.28418e-001,-5.97561e+000,-5.50610e+001,-1.70732e+000
-1.49386e-005,-4.53193e-006,1.31348e-001,2.26563e-001,6.17188e-001,-7.25610e+000,-5.46341e+001,-2.80488e+000
-1.22530e-005,-1.84634e-006,1.75781e-001,2.37305e-001,6.06445e-001,-1.11585e+001,-5.09146e+001,-5.18293e+000
-1.04067e-005,5.03548e-007,1.99707e-001,2.43652e-001,5.96680e-001,-1.40244e+001,-4.74390e+001,-6.34146e+000
-8.56031e-006,9.06386e-006,2.55371e-001,2.74902e-001,5.58105e-001,-2.11585e+001,-3.77439e+001,-8.35366e+000
-6.37827e-006,1.76242e-005,2.91016e-001,2.87109e-001,5.33691e-001,-2.53659e+001,-3.18293e+001,-9.63415e+000
-7.55322e-006,2.18204e-005,3.54004e-001,3.09082e-001,5.06348e-001,-3.39024e+001,-1.71951e+001,-1.13415e+001
-8.89601e-006,1.94705e-005,3.67676e-001,3.14941e-001,4.94141e-001,-3.68902e+001,-9.32927e+000,-1.18902e+001
-7.88891e-006,8.22461e-006,3.72070e-001,3.07617e-001,4.95605e-001,-4.24390e+001,5.91463e+000,-1.18902e+001
-9.06386e-006,-1.49386e-005,3.38867e-001,2.76855e-001,5.30273e-001,-4.66463e+001,1.89024e+001,-1.18902e+001
-1.22530e-005,-3.57519e-005,3.03223e-001,2.47559e-001,5.48828e-001,-4.78659e+001,2.35976e+001,-1.22561e+001
-8.89601e-006,-4.88441e-005,1.96777e-001,1.83105e-001,6.04980e-001,-4.89024e+001,2.82317e+001,-1.29268e+001
-3.18914e-006,-4.98512e-005,1.34277e-001,1.48438e-001,6.38184e-001,-4.87195e+001,2.81098e+001,-1.30488e+001
-3.69268e-006,-5.18654e-005,2.44141e-003,8.74023e-002,7.17773e-001,-4.65854e+001,2.48780e+001,-1.28659e+001
-5.20333e-006,-4.85084e-005,-6.78711e-002,5.71289e-002,7.66602e-001,-4.50610e+001,2.24390e+001,-1.24390e+001
-2.85344e-006,-3.00450e-005,-1.83594e-001,-4.39453e-003,8.92578e-001,-4.08537e+001,1.59756e+001,-1.13415e+001
-2.85344e-006,-6.54612e-006,-2.29004e-001,-2.73438e-002,9.46777e-001,-3.79878e+001,1.19512e+001,-1.09146e+001
-6.54612e-006,-1.67849e-006,-2.75879e-001,-5.02930e-002,1.01660e+000,-3.22561e+001,1.40244e+000,-9.69512e+000
-8.89601e-006,1.00710e-006,-2.55859e-001,-4.39453e-002,1.04395e+000,-2.81098e+001,-1.11585e+001,-9.32927e+000
-1.35958e-005,-2.01419e-006,-2.22656e-001,-3.32031e-002,1.04541e+000,-2.67073e+001,-1.76829e+001,-9.32927e+000
-1.49386e-005,-8.39246e-007,-1.15234e-001,1.85547e-002,9.54102e-001,-2.51220e+001,-3.14634e+001,-1.10976e+001
-1.05745e-005,-1.00710e-006,-4.54102e-002,5.17578e-002,9.13086e-001,-2.55488e+001,-3.83537e+001,-1.18902e+001
-8.89601e-006,-1.17494e-006,8.00781e-002,1.04980e-001,8.40332e-001,-2.45732e+001,-4.93902e+001,-1.38415e+001
-8.22461e-006,-5.03548e-007,1.36230e-001,1.21094e-001,8.07617e-001,-2.23780e+001,-5.39634e+001,-1.51220e+001
-1.09102e-005,2.18204e-006,2.13867e-001,1.46484e-001,7.75879e-001,-1.57927e+001,-6.11585e+001,-1.77439e+001
-1.30922e-005,1.84634e-006,2.26563e-001,1.59668e-001,7.60742e-001,-1.26829e+001,-6.42073e+001,-1.89024e+001
-1.09102e-005,1.67849e-007,2.09961e-001,1.89941e-001,7.09961e-001,-1.16463e+001,-6.89634e+001,-2.12805e+001
-9.90310e-006,-7.21752e-006,1.76758e-001,1.96777e-001,7.01172e-001,-1.37195e+001,-7.23171e+001,-2.42073e+001
-8.89601e-006,-1.30922e-005,1.55762e-001,1.88965e-001,7.19238e-001,-1.36585e+001,-7.28049e+001,-2.51220e+001
-8.22461e-006,-1.02388e-005,1.23047e-001,1.68457e-001,8.12012e-001,-1.10976e+001,-7.08537e+001,-2.62195e+001
-1.30922e-005,-8.56031e-006,9.91211e-002,1.50391e-001,8.82324e-001,-8.90244e+000,-6.89634e+001,-2.64634e+001
-1.02388e-005,-8.89601e-006,5.46875e-002,8.44727e-002,1.15186e+000,-4.51220e+000,-6.37805e+001,-2.53659e+001
-1.02388e-005,-1.20851e-005,1.70898e-002,2.58789e-002,1.35889e+000,4.26829e-001,-6.09146e+001,-2.44512e+001
-1.42672e-005,-9.23171e-006,-1.31836e-001,-1.45996e-001,1.69287e+000,1.39024e+001,-6.34146e+001,-1.90854e+001
-1.29244e-005,-4.36408e-006,-1.82129e-001,-2.45605e-001,1.78760e+000,1.96341e+001,-6.91463e+001,-1.35366e+001
-1.20851e-005,-4.86763e-006,-1.89941e-001,-4.04785e-001,1.90625e+000,2.06098e+001,-6.56098e+001,-2.37805e+000
-1.15816e-005,-8.89601e-006,-4.98047e-002,-4.25781e-001,2.08203e+000,5.36585e+000,-2.14024e+001,9.02439e+000
-9.73526e-006,-1.62814e-005,1.01563e-001,-3.60840e-001,2.16455e+000,-3.65854e+000,8.90244e+000,1.48780e+001
-8.72816e-006,-1.72885e-005,4.18457e-001,-1.34277e-001,1.98779e+000,-1.50000e+001,4.90244e+001,2.20122e+001
-6.21042e-006,-1.89670e-005,5.23438e-001,-2.88086e-002,1.76074e+000,-1.77439e+001,5.40854e+001,2.19512e+001
-4.53193e-006,-2.16526e-005,5.08789e-001,5.90820e-002,1.29443e+000,-1.90244e+001,6.50610e+001,1.87195e+001
-7.04967e-006,-2.11490e-005,4.12109e-001,5.37109e-002,1.11475e+000,-2.07317e+001,8.12195e+001,1.81707e+001
-7.72107e-006,-1.59457e-005,2.45117e-001,7.61719e-002,8.12988e-001,-3.24390e+001,1.32561e+002,2.31707e+001
-7.55322e-006,-1.54421e-005,2.38770e-001,1.42578e-001,6.73828e-001,-4.17073e+001,1.54329e+002,2.61585e+001
-6.21042e-006,-1.42672e-005,2.95898e-001,3.06152e-001,4.52148e-001,-5.54878e+001,1.70061e+002,2.63415e+001
-7.88891e-006,-1.82956e-005,2.97363e-001,3.57910e-001,4.01855e-001,-5.81707e+001,1.67378e+002,2.46951e+001
-1.17494e-005,-1.82956e-005,1.89941e-001,3.71094e-001,3.96973e-001,-5.53659e+001,1.57012e+002,2.23171e+001
-9.73526e-006,-1.51064e-005,4.19922e-002,3.33008e-001,4.72168e-001,-5.20732e+001,1.46220e+002,2.51220e+001
-1.04067e-005,-1.29244e-005,-2.00195e-002,2.98828e-001,5.30273e-001,-5.13415e+001,1.38354e+002,2.67073e+001
-8.89601e-006,-5.87472e-006,-1.10840e-001,1.88477e-001,6.78711e-001,-4.92683e+001,1.15732e+002,2.78049e+001
-6.54612e-006,-1.67849e-007,-1.45508e-001,1.15723e-001,7.56348e-001,-4.68293e+001,1.03049e+002,2.75000e+001
-7.72107e-006,8.39246e-006,-2.15332e-001,-3.07617e-002,8.89648e-001,-3.90854e+001,7.71341e+001,2.57927e+001
-1.02388e-005,2.40024e-005,-2.39258e-001,-8.93555e-002,9.26270e-001,-3.56098e+001,6.47561e+001,2.47561e+001
-8.72816e-006,2.61845e-005,-2.47070e-001,-1.44043e-001,9.47754e-001,-2.85976e+001,4.07927e+001,2.29268e+001
-7.88891e-006,1.10781e-005,-2.43164e-001,-1.45020e-001,9.38477e-001,-2.57927e+001,2.98780e+001,2.15854e+001
-1.09102e-005,-2.18204e-006,-1.95801e-001,-1.00586e-001,9.24316e-001,-2.18902e+001,1.25610e+001,1.82927e+001
-8.22461e-006,1.17494e-006,-1.45996e-001,-2.78320e-002,8.76953e-001,-1.79268e+001,2.43902e-001,1.53049e+001
-8.22461e-006,3.18914e-006,-1.17188e-001,2.24609e-002,8.47168e-001,-1.68293e+001,-4.63415e+000,1.42683e+001
-1.10781e-005,-3.02129e-006,-3.95508e-002,1.11328e-001,7.81738e-001,-1.64024e+001,-9.93902e+000,1.23171e+001
-1.05745e-005,-8.22461e-006,3.41797e-003,1.48926e-001,7.46582e-001,-1.71951e+001,-1.04268e+001,1.10976e+001
-1.09102e-005,-9.90310e-006,8.30078e-002,2.12402e-001,6.76758e-001,-2.05488e+001,-9.08537e+000,9.20732e+000
-6.37827e-006,-8.22461e-006,1.14746e-001,2.32910e-001,6.50879e-001,-2.21341e+001,-7.68293e+000,7.86585e+000
-3.52483e-006,-8.72816e-006,1.52832e-001,2.50977e-001,6.17676e-001,-2.52439e+001,-4.45122e+000,5.85366e+000
-9.23171e-006,-5.87472e-006,1.54297e-001,2.49023e-001,6.12793e-001,-2.65244e+001,-2.74390e+000,4.39024e+000
-1.52743e-005,-4.69978e-006,1.36230e-001,2.18750e-001,6.35742e-001,-2.79878e+001,-1.82927e+000,2.56098e+000
-1.72885e-005,-9.06386e-006,9.32617e-002,1.65527e-001,6.75781e-001,-2.81098e+001,-2.98780e+000,7.92683e-001
-1.47707e-005,-2.16526e-005,6.68945e-002,1.29883e-001,7.01660e-001,-2.84146e+001,-4.02439e+000,-1.21951e-001
-1.19173e-005,-3.02129e-005,3.27148e-002,7.71484e-002,7.62207e-001,-2.84146e+001,-7.98780e+000,-1.46341e+000
-9.90310e-006,-3.12200e-005,1.95313e-002,5.27344e-002,7.87109e-001,-2.83537e+001,-1.00610e+001,-2.56098e+000
-1.15816e-005,-3.10521e-005,1.80664e-002,2.29492e-002,8.17871e-001,-2.81707e+001,-1.45732e+001,-4.39024e+000
-1.07424e-005,-3.05486e-005,2.63672e-002,1.80664e-002,8.28125e-001,-2.81098e+001,-1.67683e+001,-5.67073e+000
-7.55322e-006,-2.63523e-005,5.71289e-002,3.17383e-002,8.49609e-001,-2.66463e+001,-2.12195e+001,-7.31707e+000
-7.88891e-006,-1.76242e-005,7.17773e-002,4.44336e-002,8.67188e-001,-2.59146e+001,-2.34146e+001,-7.98780e+000
-9.06386e-006,-8.22461e-006,1.08887e-001,7.27539e-002,8.82324e-001,-2.47561e+001,-2.62195e+001,-9.32927e+000
-1.02388e-005,1.00710e-005,1.36230e-001,8.69141e-002,9.07227e-001,-2.43293e+001,-2.70732e+001,-1.03659e+001
-1.02388e-005,2.66880e-005,1.46484e-001,9.03320e-002,9.22852e-001,-2.37805e+001,-2.65854e+001,-1.09756e+001
-9.23171e-006,2.87022e-005,1.48926e-001,9.08203e-002,9.57031e-001,-2.27439e+001,-2.53659e+001,-1.10976e+001
-7.04967e-006,1.37636e-005,1.45508e-001,8.78906e-002,9.80957e-001,-2.21951e+001,-2.43902e+001,-1.11585e+001
-6.88182e-006,2.51774e-006,1.23535e-001,7.08008e-002,1.03174e+000,-2.07927e+001,-2.26220e+001,-1.10366e+001
-1.35958e-005,-5.03548e-006,1.04004e-001,6.10352e-002,1.06104e+000,-1.99390e+001,-2.18902e+001,-1.06707e+001
-1.22530e-005,-1.56100e-005,5.90820e-002,4.29688e-002,1.11719e+000,-1.79878e+001,-1.98780e+001,-9.87805e+000
-1.02388e-005,-2.16526e-005,3.46680e-002,3.22266e-002,1.13135e+000,-1.74390e+001,-1.92683e+001,-8.78049e+000
-9.23171e-006,-2.76951e-005,-2.92969e-003,1.26953e-002,1.14111e+000,-1.70122e+001,-1.64634e+001,-6.70732e+000
-5.53903e-006,-3.17235e-005,-1.41602e-002,9.76563e-003,1.11621e+000,-1.70122e+001,-1.48780e+001,-5.85366e+000
-6.88182e-006,-2.80308e-005,-9.27734e-003,1.61133e-002,1.09326e+000,-1.65244e+001,-1.18902e+001,-4.75610e+000
-8.22461e-006,-2.60166e-005,2.09961e-002,2.29492e-002,1.05322e+000,-1.59146e+001,-1.01220e+001,-3.84146e+000
-1.02388e-005,-2.16526e-005,2.92969e-002,2.97852e-002,1.03564e+000,-1.58537e+001,-9.81707e+000,-3.96341e+000
-1.05745e-005,-1.10781e-005,4.19922e-002,4.05273e-002,1.01465e+000,-1.48171e+001,-9.75610e+000,-3.96341e+000
-8.56031e-006,-8.22461e-006,5.17578e-002,3.90625e-002,1.01904e+000,-1.38415e+001,-9.93902e+000,-3.84146e+000
-1.10781e-005,-7.88891e-006,5.41992e-002,3.61328e-002,1.03418e+000,-1.12195e+001,-1.06098e+001,-3.47561e+000
-1.09102e-005,-9.56741e-006,5.46875e-002,3.32031e-002,1.04395e+000,-1.03659e+001,-1.05488e+001,-3.04878e+000
-9.90310e-006,-1.82956e-005,4.98047e-002,3.32031e-002,1.05273e+000,-9.08537e+000,-1.12805e+001,-1.95122e+000
-1.12459e-005,-2.23239e-005,3.71094e-002,2.78320e-002,1.05615e+000,-8.53659e+000,-1.13415e+001,-1.09756e+000
-1.35958e-005,-2.53452e-005,1.95313e-002,1.61133e-002,1.05664e+000,-6.82927e+000,-1.27439e+001,-1.82927e-001
-1.15816e-005,-2.34989e-005,-4.88281e-003,9.76563e-003,1.05078e+000,-5.00000e+000,-1.38415e+001,6.09756e-001
-1.35958e-005,-1.74563e-005,-1.51367e-002,8.30078e-003,1.05225e+000,-3.53659e+000,-1.46341e+001,1.21951e+000
-1.25887e-005,-1.29244e-005,-4.98047e-002,5.85938e-003,1.03418e+000,-2.01220e+000,-1.71341e+001,2.37805e+000
-1.42672e-005,2.18204e-006,-6.68945e-002,5.85938e-003,1.01807e+000,-1.34146e+000,-1.88415e+001,2.50000e+000
-1.05745e-005,1.46029e-005,-8.25195e-002,8.30078e-003,9.94629e-001,-7.31707e-001,-2.28049e+001,2.98780e+000
-8.56031e-006,-1.51064e-006,-8.05664e-002,1.36719e-002,9.85352e-001,-2.43902e-001,-2.53659e+001,3.35366e+000
-8.56031e-006,-7.21752e-006,-6.59180e-002,2.78320e-002,9.63379e-001,1.21951e+000,-2.96341e+001,3.47561e+000
-6.37827e-006,6.71397e-006,-6.25000e-002,3.36914e-002,9.54102e-001,1.76829e+000,-3.14024e+001,3.41463e+000
-1.24208e-005,8.56031e-006,-4.49219e-002,5.12695e-002,9.45313e-001,2.92683e+000,-3.40854e+001,3.96341e+000
-1.35958e-005,-3.69268e-006,-1.66016e-002,6.88477e-002,9.49219e-001,3.96341e+000,-3.68293e+001,4.51220e+000
-1.30922e-005,-7.72107e-006,-7.32422e-003,7.17773e-002,9.48242e-001,4.39024e+000,-3.81098e+001,4.51220e+000
-1.27565e-005,-5.20333e-006,-4.88281e-004,7.61719e-002,9.64355e-001,5.54878e+000,-4.03659e+001,4.08537e+000
-1.29244e-005,-6.54612e-006,-9.76563e-004,7.66602e-002,9.70215e-001,6.03659e+000,-4.10976e+001,3.96341e+000
-1.42672e-005,3.97803e-005,-2.24609e-002,6.88477e-002,9.82910e-001,6.76829e+000,-4.17073e+001,3.47561e+000
-1.52743e-005,3.97803e-005,-3.36914e-002,6.34766e-002,9.88770e-001,7.01220e+000,-4.15244e+001,3.29268e+000
-1.32601e-005,2.34989e-006,-3.56445e-002,6.59180e-002,9.94629e-001,6.64634e+000,-4.20732e+001,3.41463e+000
-1.22530e-005,-1.22530e-005,-3.46680e-002,6.59180e-002,9.92188e-001,6.58537e+000,-4.21951e+001,3.59756e+000
-6.88182e-006,-1.39315e-005,-2.92969e-002,6.49414e-002,1.00098e+000,7.62195e+000,-4.28659e+001,4.39024e+000
-4.86763e-006,-1.86313e-005,-3.17383e-002,6.00586e-002,1.00391e+000,9.02439e+000,-4.32927e+001,5.85366e+000
-1.10781e-005,-2.87022e-005,-3.32031e-002,6.20117e-002,1.00635e+000,9.57317e+000,-4.28049e+001,6.52439e+000
-1.10781e-005,-3.05486e-005,-2.09961e-002,6.15234e-002,1.00195e+000,1.00000e+001,-4.09756e+001,7.92683e+000
-7.04967e-006,-2.76951e-005,-5.85938e-003,6.93359e-002,9.96094e-001,9.26829e+000,-3.95122e+001,8.59756e+000
-4.86763e-006,-2.70237e-005,2.24609e-002,8.49609e-002,9.92188e-001,7.13415e+000,-3.57317e+001,9.02439e+000
-6.88182e-006,-2.63523e-005,3.80859e-002,9.57031e-002,9.88770e-001,5.91463e+000,-3.34146e+001,8.71951e+000
-1.04067e-005,-2.16526e-005,6.73828e-002,1.09375e-001,9.89258e-001,4.45122e+000,-2.85976e+001,8.41463e+000
-7.88891e-006,-2.08133e-005,7.71484e-002,1.23047e-001,9.89746e-001,3.29268e+000,-2.57927e+001,7.98780e+000
-6.88182e-006,-2.06455e-005,1.03027e-001,1.36230e-001,1.00049e+000,1.95122e+000,-2.00610e+001,8.29268e+000
-9.56741e-006,-1.56100e-005,1.08398e-001,1.48438e-001,9.84863e-001,1.21951e+000,-1.69512e+001,8.29268e+000
-6.54612e-006,-1.52743e-005,9.91211e-002,1.54785e-001,9.72656e-001,6.09756e-001,-1.68293e+001,8.35366e+000
-4.19623e-006,-1.42672e-005,7.17773e-002,1.60156e-001,9.73633e-001,1.21951e-001,-1.76220e+001,7.86585e+000
-8.22461e-006,-1.20851e-005,6.39648e-002,1.52832e-001,9.84863e-001,6.70732e-001,-1.81098e+001,7.56098e+000
-1.10781e-005,-1.25887e-005,5.27344e-002,1.38672e-001,1.01855e+000,3.23171e+000,-2.07317e+001,6.09756e+000
-1.10781e-005,-7.72107e-006,5.22461e-002,1.26465e-001,1.03516e+000,4.75610e+000,-2.35366e+001,4.93902e+000
-9.06386e-006,-5.87472e-006,6.15234e-002,1.21094e-001,1.05127e+000,8.41463e+000,-3.04268e+001,3.17073e+000
-1.30922e-005,-3.86053e-006,7.27539e-002,1.20605e-001,1.05908e+000,9.32927e+000,-3.36585e+001,2.19512e+000
-9.56741e-006,-2.18204e-006,1.09375e-001,1.26953e-001,1.05859e+000,1.04268e+001,-3.67683e+001,7.92683e-001
-6.88182e-006,1.84634e-006,1.35742e-001,1.28906e-001,1.04883e+000,1.01829e+001,-3.62195e+001,3.04878e-001
-6.37827e-006,-8.39246e-007,1.96777e-001,1.41602e-001,1.00977e+000,8.29268e+000,-3.10366e+001,-1.28049e+000
-9.56741e-006,-8.39246e-006,2.33887e-001,1.58691e-001,9.80469e-001,4.81707e+000,-2.14634e+001,-2.01220e+000
-9.73526e-006,-1.17494e-005,2.48535e-001,1.73340e-001,9.73145e-001,2.62195e+000,-1.49390e+001,-1.70732e+000
-9.73526e-006,-1.19173e-005,2.98828e-001,1.97754e-001,9.89746e-001,-2.92683e+000,2.07317e+000,-1.03659e+000
-9.90310e-006,-1.10781e-005,3.27637e-001,2.14355e-001,1.01709e+000,-5.79268e+000,1.27439e+001,-4.26829e-001
-1.25887e-005,-9.73526e-006,4.05273e-001,2.46582e-001,1.05859e+000,-1.27439e+001,3.70732e+001,1.21951e-001
-1.29244e-005,-1.35958e-005,4.37988e-001,2.61230e-001,1.06299e+000,-1.72561e+001,4.95732e+001,1.21951e-001
-1.02388e-005,-1.05745e-005,5.12695e-001,3.11523e-001,1.02002e+000,-2.78049e+001,7.53659e+001,6.09756e-002
-8.39246e-006,-1.10781e-005,5.53223e-001,3.35449e-001,9.78516e-001,-3.40854e+001,8.95122e+001,-1.21951e-001
-9.90310e-006,-1.39315e-005,6.18164e-001,3.98926e-001,8.45215e-001,-4.79268e+001,1.18537e+002,6.09756e-001
-1.10781e-005,-1.12459e-005,6.54297e-001,4.54102e-001,6.84082e-001,-5.90854e+001,1.45244e+002,1.46341e+000
-1.00710e-005,-8.39246e-006,6.49414e-001,4.77051e-001,6.01563e-001,-6.31098e+001,1.55732e+002,1.64634e+000
-1.15816e-005,-4.19623e-006,5.93750e-001,4.97559e-001,4.45801e-001,-6.82927e+001,1.63659e+002,9.75610e-001
-9.23171e-006,-4.02838e-006,4.98535e-001,4.85840e-001,4.09180e-001,-6.83537e+001,1.60061e+002,5.48781e-001
-1.02388e-005,-4.19623e-006,1.84082e-001,3.34473e-001,4.16016e-001,-6.17683e+001,1.39817e+002,2.07317e+000
-1.09102e-005,-3.52483e-006,-2.63672e-002,2.06055e-001,4.41406e-001,-5.64024e+001,1.26524e+002,3.71951e+000
-1.05745e-005,-5.87472e-006,-4.79004e-001,-1.95313e-002,4.39453e-001,-4.53659e+001,9.64024e+001,8.29268e+000
-9.56741e-006,-1.02388e-005,-6.79688e-001,-8.83789e-002,4.15039e-001,-4.11585e+001,7.91463e+001,1.08537e+001
-9.90310e-006,-9.39956e-006,-9.65820e-001,-1.69434e-001,4.12109e-001,-3.53659e+001,4.07927e+001,1.48171e+001
-7.88891e-006,-1.29244e-005,-1.05566e+000,-1.98730e-001,4.18945e-001,-2.90244e+001,-1.52439e+000,1.52439e+001
-8.22461e-006,-1.44350e-005,-1.03320e+000,-1.95313e-001,4.31152e-001,-2.57927e+001,-2.18293e+001,1.38415e+001
-7.55322e-006,-1.00710e-005,-8.38379e-001,-1.68945e-001,4.77539e-001,-1.93902e+001,-5.82317e+001,9.45122e+000
-5.53903e-006,-4.02838e-006,-6.96289e-001,-1.51855e-001,5.20020e-001,-1.63415e+001,-7.35976e+001,6.76829e+000
-7.55322e-006,-8.89601e-006,-3.41797e-001,-1.01563e-001,6.29395e-001,-9.87805e+000,-1.00122e+002,1.21951e-001
-6.88182e-006,-1.09102e-005,-1.58203e-001,-6.15234e-002,6.78223e-001,-6.52439e+000,-1.10305e+002,-3.29268e+000
-4.53193e-006,-1.44350e-005,1.71387e-001,1.36719e-002,7.66113e-001,-1.03659e+000,-1.23110e+002,-9.81707e+000
-4.19623e-006,-2.21561e-005,2.93945e-001,4.58984e-002,8.03223e-001,9.14634e-001,-1.25244e+002,-1.30488e+001
-9.73526e-006,-2.58488e-005,4.60449e-001,1.31348e-001,8.57422e-001,3.10976e+000,-1.21524e+002,-1.78659e+001
-8.56031e-006,-2.90379e-005,5.15137e-001,2.00684e-001,8.91602e-001,2.37805e+000,-1.10366e+002,-2.04268e+001
-9.90310e-006,-2.56809e-005,5.09277e-001,2.26563e-001,9.04297e-001,1.52439e+000,-1.02866e+002,-2.07317e+001
-1.39315e-005,-3.50805e-005,4.56543e-001,2.44629e-001,9.23828e-001,-1.21951e-001,-8.68293e+001,-2.10366e+001
-1.56100e-005,-1.34279e-005,4.12598e-001,2.37793e-001,9.31152e-001,-7.92683e-001,-7.98171e+001,-2.05488e+001
-1.15816e-005,2.43381e-005,2.91016e-001,1.88477e-001,9.38477e-001,-1.64634e+000,-6.77439e+001,-1.90244e+001
-1.05745e-005,2.53452e-005,2.35840e-001,1.52344e-001,9.41406e-001,-1.82927e+000,-6.34756e+001,-1.84146e+001
-1.52743e-005,1.37636e-005,1.31348e-001,8.88672e-002,9.54590e-001,-4.87805e-001,-5.93293e+001,-1.71951e+001
-1.49386e-005,2.01419e-006,9.61914e-002,5.56641e-002,9.54102e-001,5.48781e-001,-5.86585e+001,-1.68293e+001
-1.22530e-005,-6.21042e-006,5.02930e-002,7.32422e-003,9.60449e-001,2.50000e+000,-5.92683e+001,-1.65244e+001
-9.90310e-006,-7.88891e-006,4.83398e-002,-1.26953e-002,9.59961e-001,3.78049e+000,-6.00610e+001,-1.65244e+001
-1.15816e-005,-6.37827e-006,5.32227e-002,-1.22070e-002,9.58496e-001,4.39024e+000,-5.99390e+001,-1.63415e+001
-1.42672e-005,-5.87472e-006,9.08203e-002,5.85938e-003,9.59473e-001,4.81707e+000,-5.81098e+001,-1.57927e+001
-1.25887e-005,-5.87472e-006,1.14746e-001,2.05078e-002,9.61426e-001,4.57317e+000,-5.65854e+001,-1.56098e+001
-1.12459e-005,-5.03548e-006,1.44531e-001,4.98047e-002,9.65820e-001,3.78049e+000,-5.27439e+001,-1.43902e+001
-1.25887e-005,-5.70687e-006,1.51367e-001,5.95703e-002,9.66797e-001,2.98780e+000,-5.03049e+001,-1.36585e+001
-9.90310e-006,-6.04257e-006,1.49414e-001,7.08008e-002,9.66309e-001,1.52439e+000,-4.45122e+001,-1.13415e+001
-1.24208e-005,5.70687e-006,1.39648e-001,7.47070e-002,9.60938e-001,8.53659e-001,-4.14024e+001,-9.93902e+000
-1.12459e-005,2.16526e-005,1.25000e-001,8.05664e-002,9.55078e-001,-9.14634e-001,-3.50000e+001,-7.50000e+000
-1.29244e-005,9.23171e-006,1.13770e-001,8.39844e-002,9.51172e-001,-1.76829e+000,-3.23780e+001,-6.28049e+000
-1.40993e-005,-1.19173e-005,9.13086e-002,8.93555e-002,9.35547e-001,-3.47561e+000,-2.81098e+001,-3.65854e+000
-1.32601e-005,-2.01419e-005,6.83594e-002,9.37500e-002,9.33105e-001,-4.81707e+000,-2.59146e+001,-1.40244e+000
-1.66171e-005,-2.16526e-005,5.37109e-002,9.22852e-002,9.36523e-001,-5.30488e+000,-2.57927e+001,-3.04878e-001
-1.34279e-005,-1.98062e-005,2.44141e-002,8.20313e-002,9.56543e-001,-5.00000e+000,-2.70122e+001,1.89024e+000
-1.32601e-005,-1.74563e-005,5.85938e-003,6.73828e-002,9.67285e-001,-4.51220e+000,-2.88415e+001,3.17073e+000
-1.10781e-005,-1.62814e-005,-1.90430e-002,3.32031e-002,1.01758e+000,-6.70732e-001,-3.39634e+001,5.18293e+000
-1.09102e-005,-1.46029e-005,-2.92969e-002,1.36719e-002,1.03662e+000,2.19512e+000,-3.68902e+001,5.91463e+000
-1.09102e-005,-7.55322e-006,-2.49023e-002,-4.88281e-003,1.04004e+000,6.40244e+000,-4.14024e+001,7.19512e+000
-9.39956e-006,-8.39246e-007,-2.05078e-002,-6.83594e-003,1.03760e+000,7.07317e+000,-4.29268e+001,7.50000e+000
-1.19173e-005,6.54612e-006,1.41602e-002,1.66016e-002,1.01807e+000,8.29268e+000,-4.64024e+001,7.68293e+000
-9.90310e-006,1.22530e-005,4.19922e-002,6.00586e-002,9.77051e-001,8.59756e+000,-5.08537e+001,7.80488e+000
-1.00710e-005,5.20333e-006,5.76172e-002,7.56836e-002,9.29199e-001,8.59756e+000,-5.15244e+001,8.17073e+000
-1.19173e-005,-8.72816e-006,9.57031e-002,1.20605e-001,8.13965e-001,6.76829e+000,-4.82927e+001,8.53659e+000
-1.37636e-005,-2.36667e-005,1.14746e-001,1.46973e-001,7.59766e-001,4.26829e+000,-4.47561e+001,8.78049e+000
-1.09102e-005,-3.65911e-005,1.63086e-001,2.01172e-001,6.76758e-001,-1.95122e+000,-3.67683e+001,8.35366e+000
-9.39956e-006,-3.74304e-005,1.79688e-001,2.29492e-001,6.34766e-001,-5.73171e+000,-3.27439e+001,7.92683e+000
-5.53903e-006,-3.70947e-005,2.09961e-001,2.71484e-001,5.66895e-001,-1.32317e+001,-2.42073e+001,7.01220e+000
-7.21752e-006,-3.67590e-005,2.25586e-001,2.89063e-001,5.40039e-001,-1.61585e+001,-1.93293e+001,7.50000e+000
-7.72107e-006,-1.22530e-005,2.77344e-001,3.20313e-001,5.02441e-001,-2.30488e+001,-9.02439e+000,8.35366e+000
-5.53903e-006,2.51774e-006,3.41797e-001,3.38379e-001,5.32227e-001,-2.94512e+001,6.09756e-001,9.02439e+000
-8.72816e-006,1.00710e-006,3.75977e-001,3.40820e-001,5.59082e-001,-3.25610e+001,5.06098e+000,8.35366e+000
-1.24208e-005,-1.51064e-006,4.42871e-001,3.26172e-001,6.21582e-001,-3.81098e+001,1.43293e+001,5.73171e+000
-1.10781e-005,-1.22530e-005,4.70215e-001,3.20801e-001,6.55273e-001,-4.06098e+001,1.96951e+001,4.08537e+000
-1.15816e-005,-1.34279e-005,5.19531e-001,2.95410e-001,7.27539e-001,-4.56707e+001,3.15244e+001,4.26829e-001
-1.09102e-005,-1.02388e-005,5.34668e-001,2.83203e-001,7.51953e-001,-4.81707e+001,3.74390e+001,-1.09756e+000
-8.89601e-006,-1.42672e-005,5.34180e-001,2.76855e-001,7.76367e-001,-5.42073e+001,4.85976e+001,-2.86585e+000
-8.39246e-006,-1.25887e-005,5.23926e-001,2.67090e-001,7.79785e-001,-5.68902e+001,5.36585e+001,-3.10976e+000
-8.56031e-006,-1.15816e-005,4.63379e-001,2.57324e-001,7.73926e-001,-6.09146e+001,6.10366e+001,-2.56098e+000
-9.73526e-006,-1.22530e-005,3.74512e-001,2.38770e-001,7.38770e-001,-6.37805e+001,6.48171e+001,-1.89024e+000
-9.23171e-006,-4.53193e-006,3.21289e-001,2.25586e-001,7.11914e-001,-6.49390e+001,6.55488e+001,-1.46341e+000
-5.87472e-006,-4.19623e-006,2.08496e-001,1.86523e-001,7.00195e-001,-6.60366e+001,6.50610e+001,-7.31707e-001
-4.86763e-006,-9.39956e-006,1.45996e-001,1.64063e-001,6.95801e-001,-6.58537e+001,6.42073e+001,-4.26829e-001
-6.88182e-006,-1.42672e-005,3.36914e-002,1.15723e-001,6.89941e-001,-6.48171e+001,6.19512e+001,7.31707e-001
-7.21752e-006,-1.44350e-005,-7.81250e-003,1.02051e-001,6.77246e-001,-6.48171e+001,6.06098e+001,1.09756e+000
-5.87472e-006,-1.02388e-005,-5.81055e-002,8.69141e-002,6.40625e-001,-6.65854e+001,5.76220e+001,2.13415e+000
-5.03548e-006,-5.70687e-006,-5.85938e-002,8.39844e-002,6.30371e-001,-6.82927e+001,5.57927e+001,2.43902e+000
-9.56741e-006,-6.88182e-006,-3.51563e-002,8.49609e-002,6.12793e-001,-7.07927e+001,5.06098e+001,2.19512e+000
-9.73526e-006,-6.88182e-006,3.66211e-002,9.91211e-002,5.89355e-001,-7.11585e+001,4.87195e+001,1.46341e+000
-8.89601e-006,-1.00710e-005,7.17773e-002,1.06934e-001,5.91309e-001,-7.18902e+001,4.93902e+001,0.00000e+000
-1.15816e-005,-1.35958e-005,1.45020e-001,1.20117e-001,6.29883e-001,-6.94512e+001,5.21951e+001,-9.75610e-001
-1.14137e-005,-1.35958e-005,1.72363e-001,1.21094e-001,6.73828e-001,-6.72561e+001,5.24390e+001,-1.46341e+000
-8.89601e-006,-6.88182e-006,1.90430e-001,1.20117e-001,7.76367e-001,-6.18293e+001,4.95732e+001,-3.17073e+000
-8.89601e-006,-5.70687e-006,1.88477e-001,1.19629e-001,8.02734e-001,-5.98171e+001,4.63415e+001,-4.39024e+000
-9.56741e-006,-1.84634e-006,1.61133e-001,9.42383e-002,9.16992e-001,-5.56098e+001,4.04878e+001,-6.89024e+000
-1.12459e-005,3.35698e-007,1.35742e-001,7.47070e-002,9.69727e-001,-5.22561e+001,3.69512e+001,-7.98780e+000
-1.17494e-005,5.03548e-007,5.51758e-002,9.27734e-003,1.12793e+000,-4.17073e+001,2.57927e+001,-9.51220e+000
-1.19173e-005,-3.52483e-006,7.32422e-003,-2.24609e-002,1.18262e+000,-3.42073e+001,1.68902e+001,-1.00610e+001
-1.15816e-005,-1.34279e-006,-8.10547e-002,-1.07910e-001,1.39502e+000,-1.81707e+001,-4.45122e+000,-1.22561e+001
-9.23171e-006,-1.17494e-006,-1.52832e-001,-1.90918e-001,1.58398e+000,3.71951e+000,-2.98171e+001,-1.48780e+001
-9.90310e-006,-5.53903e-006,-1.75781e-001,-2.18262e-001,1.59082e+000,1.29878e+001,-4.44512e+001,-1.67073e+001
-1.10781e-005,-5.87472e-006,-2.08008e-001,-2.50000e-001,1.47559e+000,2.51829e+001,-7.78659e+001,-1.99390e+001
-8.39246e-006,-6.71397e-007,-2.00195e-001,-2.52930e-001,1.48291e+000,2.84756e+001,-9.39024e+001,-2.15244e+001
-1.05745e-005,1.17494e-006,-1.31348e-001,-2.69043e-001,1.76855e+000,4.21951e+001,-1.13963e+002,-2.28659e+001
-1.42672e-005,-6.54612e-006,-1.23535e-001,-2.61230e-001,1.90771e+000,5.39024e+001,-1.22012e+002,-2.12195e+001
-1.46029e-005,-1.12459e-005,-2.03613e-001,-2.01660e-001,1.82764e+000,6.82317e+001,-1.49390e+002,-9.32927e+000
-1.56100e-005,-1.86313e-005,-2.64160e-001,-1.83594e-001,1.65332e+000,6.70732e+001,-1.63415e+002,-1.21951e+000
-1.25887e-005,-1.66171e-005,-2.85156e-001,-2.09961e-001,1.34912e+000,4.98781e+001,-1.52317e+002,1.50000e+001
-1.14137e-005,-1.56100e-005,-4.98047e-002,-2.03613e-001,1.35596e+000,1.85976e+001,-6.40854e+001,2.28659e+001
-1.22530e-005,-2.66880e-005,1.71875e-001,-1.22559e-001,1.41650e+000,2.31707e+000,-1.00610e+001,2.50610e+001
-7.72107e-006,-3.57519e-005,6.33301e-001,1.68945e-001,1.35693e+000,-2.14024e+001,6.11585e+001,2.60366e+001
-1.67849e-006,-2.88701e-005,7.75391e-001,3.10059e-001,1.26709e+000,-2.76220e+001,7.64634e+001,2.49390e+001
-4.19623e-006,-1.51064e-006,8.31055e-001,4.41895e-001,1.05273e+000,-3.29878e+001,9.55488e+001,2.25610e+001
-4.69978e-006,2.19883e-005,7.95898e-001,4.51660e-001,9.20410e-001,-3.48171e+001,1.08780e+002,2.22561e+001
-4.86763e-006,2.53452e-005,7.13379e-001,4.65820e-001,5.81055e-001,-4.57317e+001,1.44756e+002,2.19512e+001
-7.21752e-006,-1.84634e-006,6.73340e-001,4.69727e-001,4.76563e-001,-5.41463e+001,1.61524e+002,2.21951e+001
-9.56741e-006,-1.66171e-005,5.73242e-001,4.43359e-001,4.93164e-001,-6.23781e+001,1.77012e+002,2.13415e+001
-7.55322e-006,-1.35958e-005,3.61816e-001,3.54004e-001,5.94238e-001,-5.64024e+001,1.64207e+002,2.12195e+001
-5.20333e-006,-8.89601e-006,2.28516e-001,2.85645e-001,6.42578e-001,-5.14634e+001,1.51402e+002,2.20122e+001
-6.04257e-006,-7.21752e-006,-6.68945e-002,1.23535e-001,7.32910e-001,-4.32927e+001,1.21646e+002,2.43293e+001
-6.21042e-006,1.84634e-006,-2.10449e-001,3.75977e-002,7.75391e-001,-3.98171e+001,1.05854e+002,2.56098e+001
-1.10781e-005,3.86053e-006,-4.66797e-001,-1.14746e-001,8.51074e-001,-3.21951e+001,7.50610e+001,2.67073e+001
-1.29244e-005,-2.18204e-006,-5.61523e-001,-1.77246e-001,8.69141e-001,-2.79268e+001,5.89024e+001,2.67683e+001
-1.35958e-005,-4.19623e-006,-6.75293e-001,-2.34375e-001,8.69629e-001,-1.96341e+001,2.75000e+001,2.56098e+001
-1.69528e-005,-3.35698e-006,-6.76270e-001,-2.31934e-001,8.56445e-001,-1.60976e+001,1.23780e+001,2.48780e+001
-1.56100e-005,-4.36408e-006,-5.86426e-001,-1.63574e-001,8.25195e-001,-1.12805e+001,-1.36585e+001,2.38415e+001
-1.77920e-005,-1.15816e-005,-3.83301e-001,-5.02930e-002,7.95898e-001,-8.35366e+000,-3.32317e+001,2.21341e+001
-1.46029e-005,-2.24918e-005,-2.62207e-001,1.36719e-002,7.81250e-001,-7.37805e+000,-4.04268e+001,2.12805e+001
-1.22530e-005,-3.05486e-005,-1.17188e-002,1.34766e-001,7.44629e-001,-6.64634e+000,-4.92683e+001,1.96951e+001
-1.12459e-005,-3.07164e-005,1.03516e-001,1.88477e-001,7.30957e-001,-6.76829e+000,-5.04268e+001,1.82927e+001
-1.19173e-005,-2.33310e-005,2.86133e-001,2.72949e-001,7.18750e-001,-8.29268e+000,-4.74390e+001,1.51829e+001
-1.46029e-005,-1.66171e-005,3.39844e-001,2.99805e-001,7.26563e-001,-9.20732e+000,-4.37195e+001,1.32927e+001
-1.25887e-005,-1.37636e-005,3.89160e-001,3.20313e-001,7.59277e-001,-1.20732e+001,-3.34756e+001,9.32927e+000
-1.00710e-005,-1.52743e-005,3.80859e-001,3.17871e-001,7.70020e-001,-1.33537e+001,-2.84756e+001,7.37805e+000
-1.15816e-005,-1.37636e-005,3.39355e-001,2.84668e-001,7.91016e-001,-1.60366e+001,-1.94512e+001,4.26829e+000
-8.72816e-006,-8.22461e-006,3.06641e-001,2.60742e-001,7.95898e-001,-1.71951e+001,-1.54878e+001,3.04878e+000
-9.56741e-006,-9.56741e-006,2.34863e-001,2.07520e-001,8.15918e-001,-1.93293e+001,-9.63415e+000,7.92683e-001
-1.02388e-005,-9.73526e-006,1.78223e-001,1.49902e-001,8.47168e-001,-1.98171e+001,-6.95122e+000,-1.46341e+000
-7.55322e-006,-1.19173e-005,1.56738e-001,1.25000e-001,8.62305e-001,-1.94512e+001,-6.70732e+000,-2.50000e+000
-2.85344e-006,-1.17494e-005,1.16211e-001,8.34961e-002,8.97949e-001,-1.91463e+001,-8.23171e+000,-4.45122e+000
1.67849e-007,-8.22461e-006,9.91211e-002,6.78711e-002,9.15527e-001,-1.84146e+001,-9.63415e+000,-5.18293e+000
-2.85344e-006,-6.04257e-006,8.05664e-002,5.81055e-002,9.44824e-001,-1.69512e+001,-1.23780e+001,-6.15854e+000
-9.73526e-006,-5.20333e-006,8.44727e-002,6.10352e-002,9.56055e-001,-1.64024e+001,-1.36585e+001,-6.58537e+000
-8.22461e-006,-7.21752e-006,1.03516e-001,6.98242e-002,9.74609e-001,-1.59756e+001,-1.60976e+001,-7.62195e+000
-5.53903e-006,-1.02388e-005,1.12793e-001,7.61719e-002,9.83887e-001,-1.53659e+001,-1.66463e+001,-8.04878e+000
-8.89601e-006,-8.39246e-006,1.48438e-001,8.78906e-002,1.00098e+000,-1.41463e+001,-1.70122e+001,-9.39024e+000
-1.02388e-005,-1.19173e-005,1.74316e-001,9.61914e-002,1.01709e+000,-1.35366e+001,-1.59756e+001,-1.03659e+001
-8.56031e-006,-1.42672e-005,1.77734e-001,9.86328e-002,1.02539e+000,-1.32927e+001,-1.49390e+001,-1.07317e+001
-1.19173e-005,-1.91348e-005,1.76270e-001,1.01563e-001,1.03906e+000,-1.28659e+001,-1.25000e+001,-1.10366e+001
-1.22530e-005,-2.16526e-005,1.68945e-001,1.02539e-001,1.03662e+000,-1.25610e+001,-1.09146e+001,-1.07927e+001
-1.19173e-005,-2.38346e-005,1.44531e-001,1.02051e-001,1.04590e+000,-1.20122e+001,-7.98780e+000,-1.06098e+001
-1.24208e-005,-2.23239e-005,1.38672e-001,1.04980e-001,1.05469e+000,-1.16463e+001,-6.89024e+000,-1.06098e+001
-1.39315e-005,-4.36408e-006,1.12793e-001,9.76563e-002,1.07031e+000,-1.12195e+001,-5.36585e+000,-1.01220e+001
-1.12459e-005,1.86313e-005,9.86328e-002,9.32617e-002,1.07031e+000,-1.03659e+001,-4.51220e+000,-9.75610e+000
-1.02388e-005,2.41703e-005,8.34961e-002,8.74023e-002,1.05078e+000,-1.03659e+001,-2.86585e+000,-8.84146e+000
-9.56741e-006,1.32601e-005,7.91016e-002,9.08203e-002,1.02539e+000,-1.07317e+001,-4.87805e-001,-7.86585e+000
-7.21752e-006,2.29953e-005,8.20313e-002,9.27734e-002,1.01270e+000,-1.10976e+001,5.48781e-001,-7.25610e+000
-6.88182e-006,2.87022e-005,9.08203e-002,9.86328e-002,9.82910e-001,-1.12195e+001,2.43902e+000,-6.46341e+000
-1.39315e-005,9.90310e-006,8.69141e-002,1.03516e-001,9.73145e-001,-1.10976e+001,2.37805e+000,-6.03659e+000
-1.44350e-005,-4.53193e-006,6.34766e-002,1.00098e-001,9.48730e-001,-1.02439e+001,1.64634e+000,-5.36585e+000
-1.15816e-005,-3.02129e-006,4.49219e-002,9.61914e-002,9.38965e-001,-9.87805e+000,6.09756e-001,-4.75610e+000
-1.25887e-005,-9.56741e-006,8.30078e-003,8.00781e-002,9.18457e-001,-9.69512e+000,-1.28049e+000,-3.65854e+000
-1.49386e-005,-1.93027e-005,-7.32422e-003,7.17773e-002,9.12598e-001,-1.00000e+001,-2.13415e+000,-3.23171e+000
-1.29244e-005,-1.93027e-005,-4.05273e-002,5.66406e-002,8.97461e-001,-9.75610e+000,-4.14634e+000,-2.19512e+000
-1.22530e-005,-2.03098e-005,-5.12695e-002,4.63867e-002,8.91602e-001,-9.51220e+000,-7.68293e+000,-1.52439e+000
-1.32601e-005,-2.60166e-005,-6.15234e-002,4.88281e-002,8.89648e-001,-9.14634e+000,-9.93902e+000,-1.09756e+000
-1.25887e-005,-2.18204e-005,-5.90820e-002,4.98047e-002,8.94531e-001,-7.80488e+000,-1.54878e+001,-5.48781e-001
-1.19173e-005,-1.54421e-005,-5.56641e-002,4.63867e-002,9.03809e-001,-6.70732e+000,-1.85976e+001,-2.43902e-001
-1.25887e-005,-1.22530e-005,-5.02930e-002,3.85742e-002,9.22852e-001,-3.78049e+000,-2.48171e+001,-1.82927e-001
-1.09102e-005,-1.32601e-005,-4.63867e-002,3.61328e-002,9.26758e-001,-2.80488e+000,-2.77439e+001,-4.26829e-001
-5.87472e-006,-1.19173e-005,-4.98047e-002,3.02734e-002,9.33105e-001,-5.48781e-001,-3.30488e+001,-1.58537e+000
-6.37827e-006,-1.66171e-005,-5.12695e-002,2.78320e-002,9.44336e-001,3.65854e-001,-3.57317e+001,-1.70732e+000
-1.24208e-005,-2.38346e-005,-5.07813e-002,2.09961e-002,9.68262e-001,3.71951e+000,-4.25610e+001,-2.43902e+000
-1.29244e-005,-2.43381e-005,-4.83398e-002,2.53906e-002,9.82910e-001,5.48780e+000,-4.65244e+001,-2.56098e+000
-1.30922e-005,-1.40993e-005,-4.29688e-002,2.44141e-002,9.85840e-001,9.81707e+000,-5.46341e+001,-2.98780e+000
-1.15816e-005,-1.42672e-005,-4.00391e-002,2.05078e-002,9.71191e-001,1.30488e+001,-6.17073e+001,-3.84146e+000
-6.88182e-006,-1.74563e-005,-4.19922e-002,1.80664e-002,9.74121e-001,1.42683e+001,-6.42073e+001,-4.32927e+000
-5.53903e-006,-1.09102e-005,-2.83203e-002,2.05078e-002,9.90234e-001,1.81098e+001,-6.85366e+001,-4.81707e+000
-7.21752e-006,-8.22461e-006,-1.56250e-002,2.44141e-002,1.00586e+000,2.03659e+001,-7.12805e+001,-5.00000e+000
-9.23171e-006,-1.29244e-005,8.30078e-003,2.83203e-002,1.05713e+000,2.62805e+001,-7.65854e+001,-6.15854e+000
-8.39246e-006,-1.52743e-005,1.51367e-002,2.63672e-002,1.08203e+000,2.86585e+001,-7.92073e+001,-6.15854e+000
-1.02388e-005,-1.67849e-005,1.85547e-002,1.75781e-002,1.14014e+000,3.26829e+001,-8.27439e+001,-5.18293e+000
-1.09102e-005,-1.99741e-005,2.19727e-002,8.78906e-003,1.15723e+000,3.37195e+001,-8.28659e+001,-4.39024e+000
-1.25887e-005,-2.09812e-005,3.51563e-002,1.31836e-002,1.17334e+000,3.34756e+001,-7.59756e+001,-1.70732e+000
-9.90310e-006,-2.23239e-005,8.34961e-002,3.51563e-002,1.15869e+000,2.88415e+001,-6.17073e+001,9.14634e-001
-7.55322e-006,-1.29244e-005,1.16211e-001,5.32227e-002,1.13770e+000,2.52439e+001,-5.31098e+001,1.64634e+000
-8.22461e-006,-1.37636e-005,2.01172e-001,1.02539e-001,1.09375e+000,1.87195e+001,-3.56098e+001,2.86585e+000
-7.88891e-006,-1.74563e-005,2.47070e-001,1.31836e-001,1.05664e+000,1.57317e+001,-2.75000e+001,3.35366e+000
-6.88182e-006,-1.22530e-005,3.11035e-001,1.91406e-001,9.78516e-001,9.81707e+000,-1.25000e+001,3.71951e+000
-6.54612e-006,-1.67849e-007,3.28613e-001,2.20703e-001,9.33594e-001,6.70732e+000,-5.73171e+000,3.84146e+000
-8.72816e-006,1.17494e-006,3.38867e-001,2.69531e-001,8.61328e-001,1.15854e+000,7.50000e+000,3.47561e+000
-7.55322e-006,-9.90310e-006,3.32031e-001,2.86133e-001,8.37891e-001,-5.48781e-001,1.30488e+001,3.29268e+000
-8.56031e-006,-1.93027e-005,2.83691e-001,3.01758e-001,8.54004e-001,-1.03659e+000,1.85976e+001,3.04878e+000
-7.21752e-006,-2.88701e-005,2.30469e-001,2.77344e-001,9.59961e-001,4.87805e-001,1.59146e+001,2.98780e+000
-5.87472e-006,1.57778e-005,2.08496e-001,2.51465e-001,1.02490e+000,2.31707e+000,1.26829e+001,2.68293e+000
-5.53903e-006,6.94896e-005,1.63086e-001,1.93359e-001,1.05469e+000,5.60976e+000,4.26829e+000,1.76829e+000
-8.39246e-006,3.59197e-005,1.42578e-001,1.70898e-001,1.01953e+000,5.67073e+000,6.70732e-001,1.46341e+000
-1.22530e-005,9.73526e-006,1.43555e-001,1.46484e-001,9.12109e-001,2.50000e+000,-2.43902e-001,7.31707e-001
-1.32601e-005,-1.84634e-006,1.59180e-001,1.51855e-001,8.76953e-001,6.09756e-002,3.23171e+000,6.09756e-001
-1.35958e-005,-1.09102e-005,2.28516e-001,1.84082e-001,8.30078e-001,-5.48780e+000,1.45732e+001,-1.21951e-001
-1.59457e-005,-1.22530e-005,2.74414e-001,2.02637e-001,8.16895e-001,-7.98780e+000,2.07317e+001,-3.65854e-001
-1.24208e-005,-1.19173e-005,3.63770e-001,2.48535e-001,8.29590e-001,-1.32317e+001,3.31098e+001,-9.75610e-001
-8.89601e-006,-1.64492e-005,4.43848e-001,2.71484e-001,8.76953e-001,-1.68902e+001,4.64634e+001,-1.76829e+000
-9.56741e-006,-2.36667e-005,4.65820e-001,2.77344e-001,9.08203e-001,-1.85366e+001,5.46951e+001,-2.50000e+000
-1.22530e-005,-2.63523e-005,4.97070e-001,2.88086e-001,9.58984e-001,-2.25000e+001,7.19512e+001,-3.41463e+000
-1.14137e-005,-2.85344e-006,5.04395e-001,2.97363e-001,9.56055e-001,-2.48780e+001,8.04268e+001,-3.78049e+000
-1.32601e-005,3.57519e-005,5.07324e-001,3.27148e-001,8.56445e-001,-3.26220e+001,1.00305e+002,-3.96341e+000
-1.62814e-005,2.78630e-005,5.04883e-001,3.48633e-001,7.71484e-001,-3.85976e+001,1.11707e+002,-4.14634e+000
-1.54421e-005,3.35698e-007,4.56543e-001,3.94531e-001,5.68848e-001,-5.03659e+001,1.36037e+002,-2.56098e+000
-1.76242e-005,-1.39315e-005,4.04297e-001,4.15039e-001,4.51172e-001,-5.64024e+001,1.47744e+002,-9.75610e-001
-1.54421e-005,-2.09812e-005,2.86133e-001,4.45313e-001,2.14844e-001,-6.78659e+001,1.65915e+002,2.31707e+000
-1.42672e-005,-1.96384e-005,1.47461e-001,4.35547e-001,2.19238e-001,-7.04268e+001,1.61159e+002,3.10976e+000
-1.79599e-005,-2.26596e-005,1.85547e-002,3.58887e-001,3.13477e-001,-6.40854e+001,1.44695e+002,2.98780e+000
-1.22530e-005,-3.20592e-005,-4.16992e-001,7.37305e-002,5.15137e-001,-4.23171e+001,9.10366e+001,3.90244e+000
-5.53903e-006,-2.83665e-005,-6.67969e-001,-6.59180e-002,5.56641e-001,-3.17683e+001,6.09756e+001,5.67073e+000
-3.69268e-006,-1.51064e-005,-1.07910e+000,-2.44629e-001,5.28809e-001,-1.70122e+001,5.30488e+000,1.04268e+001
-3.52483e-006,-1.69528e-005,-1.19385e+000,-3.00781e-001,5.23438e-001,-1.25610e+001,-1.96951e+001,1.13415e+001
-5.20333e-006,-2.09812e-005,-1.24365e+000,-3.76953e-001,5.37598e-001,-2.74390e+000,-6.78659e+001,9.63415e+000
-6.88182e-006,-2.29953e-005,-1.17188e+000,-3.71094e-001,5.28809e-001,3.10976e+000,-9.26220e+001,7.31707e+000
-5.87472e-006,-2.87022e-005,-8.17871e-001,-2.78809e-001,5.17578e-001,1.25000e+001,-1.38902e+002,1.34146e+000
-5.70687e-006,-2.90379e-005,-5.60547e-001,-2.06543e-001,5.31738e-001,1.51220e+001,-1.58780e+002,-2.01220e+000
-4.86763e-006,-2.83665e-005,1.90430e-002,-4.39453e-002,6.02539e-001,2.01220e+001,-1.84634e+002,-9.26829e+000
-9.56741e-006,-2.92058e-005,5.14648e-001,1.27930e-001,6.30371e-001,2.23780e+001,-1.92134e+002,-1.70732e+001
-9.56741e-006,-2.73594e-005,6.97754e-001,2.10449e-001,6.36719e-001,2.17073e+001,-1.89451e+002,-2.04268e+001
-9.56741e-006,-2.46738e-005,9.14551e-001,3.47168e-001,6.77734e-001,1.86585e+001,-1.72622e+002,-2.54878e+001
-7.55322e-006,-3.52483e-006,9.42871e-001,3.96484e-001,7.04102e-001,1.62195e+001,-1.61220e+002,-2.70122e+001
-7.88891e-006,6.37827e-006,8.82324e-001,4.42383e-001,7.66602e-001,1.23171e+001,-1.37195e+002,-2.87195e+001
-9.73526e-006,-5.03548e-007,8.03711e-001,4.33105e-001,8.01270e-001,1.07317e+001,-1.25732e+002,-2.88415e+001
-1.02388e-005,6.71397e-007,6.11328e-001,3.66699e-001,8.51563e-001,7.07317e+000,-1.06037e+002,-2.85366e+001
-9.56741e-006,-4.53193e-006,5.24414e-001,3.20313e-001,8.74512e-001,5.30488e+000,-9.83537e+001,-2.82317e+001
-1.27565e-005,-6.88182e-006,3.95020e-001,2.27051e-001,9.02344e-001,1.95122e+000,-8.45122e+001,-2.73780e+001
-1.25887e-005,-6.21042e-006,3.47168e-001,1.62109e-001,9.21387e-001,-1.52439e+000,-7.20732e+001,-2.70732e+001
-1.04067e-005,3.35698e-007,3.47656e-001,1.45996e-001,9.30664e-001,-2.74390e+000,-6.63415e+001,-2.72561e+001
-1.12459e-005,7.55322e-006,3.67188e-001,1.30859e-001,9.43848e-001,-5.67073e+000,-5.55488e+001,-2.73171e+001
-1.05745e-005,1.22530e-005,3.78906e-001,1.33789e-001,9.44824e-001,-7.43902e+000,-5.03049e+001,-2.71341e+001
-1.17494e-005,1.19173e-005,3.82813e-001,1.39648e-001,9.58008e-001,-1.06707e+001,-3.93293e+001,-2.61585e+001
-1.12459e-005,-2.85344e-006,3.81836e-001,1.32324e-001,9.69727e-001,-1.19512e+001,-3.37195e+001,-2.51220e+001
-1.15816e-005,-1.96384e-005,3.47656e-001,1.24023e-001,9.73145e-001,-1.45122e+001,-2.25610e+001,-2.25610e+001
-1.17494e-005,-3.07164e-005,3.26172e-001,1.16211e-001,9.71191e-001,-1.59146e+001,-1.70732e+001,-2.08537e+001
-1.35958e-005,-3.08843e-005,2.77344e-001,1.01563e-001,9.65332e-001,-1.84146e+001,-6.58537e+000,-1.68293e+001
-1.22530e-005,-2.73594e-005,2.40723e-001,8.34961e-002,9.60938e-001,-2.01829e+001,2.68293e+000,-1.26829e+001
-7.88891e-006,-2.63523e-005,2.28516e-001,8.44727e-002,9.52637e-001,-2.09756e+001,6.40244e+000,-1.09756e+001
-7.55322e-006,-1.49386e-005,2.09961e-001,8.05664e-002,9.33594e-001,-2.19512e+001,1.21951e+001,-7.80488e+000
-9.06386e-006,1.84634e-006,2.00195e-001,8.20313e-002,9.24316e-001,-2.20732e+001,1.38415e+001,-6.64634e+000
-6.88182e-006,1.30922e-005,1.82617e-001,8.54492e-002,9.04297e-001,-2.18902e+001,1.62805e+001,-4.57317e+000
-7.72107e-006,1.64492e-005,1.67969e-001,8.83789e-002,8.90137e-001,-2.16463e+001,1.73780e+001,-3.78049e+000
-9.56741e-006,1.35958e-005,1.47949e-001,9.76563e-002,8.70605e-001,-2.12195e+001,1.78049e+001,-2.19512e+000
-7.21752e-006,1.84634e-006,1.35742e-001,9.86328e-002,8.60840e-001,-2.17073e+001,1.78659e+001,-1.40244e+000
-5.53903e-006,-1.51064e-005,1.12305e-001,1.09375e-001,8.41309e-001,-2.20122e+001,1.78659e+001,-3.65854e-001
-7.21752e-006,-2.16526e-005,9.22852e-002,1.10352e-001,8.32520e-001,-2.25610e+001,1.69512e+001,3.65854e-001
-6.88182e-006,-2.50095e-005,9.08203e-002,1.14746e-001,8.26660e-001,-2.29268e+001,1.59756e+001,6.70732e-001
-7.88891e-006,-2.56809e-005,9.81445e-002,1.16699e-001,8.16895e-001,-2.33537e+001,1.34756e+001,9.14634e-001
-9.56741e-006,-2.21561e-005,1.04004e-001,1.18164e-001,8.18848e-001,-2.31707e+001,1.18902e+001,1.03659e+000
-8.39246e-007,-1.15816e-005,1.12793e-001,1.14258e-001,8.18848e-001,-2.30488e+001,8.59756e+000,1.09756e+000
-1.84634e-006,1.96384e-005,1.14258e-001,1.18652e-001,8.16895e-001,-2.32927e+001,7.43902e+000,1.15854e+000
-1.09102e-005,3.20592e-005,1.25000e-001,1.19141e-001,8.11035e-001,-2.29268e+001,5.12195e+000,1.09756e+000
-1.37636e-005,6.21042e-006,1.23535e-001,1.17676e-001,8.17383e-001,-2.26829e+001,3.90244e+000,1.15854e+000
-1.05745e-005,-9.39956e-006,1.21582e-001,1.30371e-001,8.02246e-001,-2.24390e+001,1.76829e+000,1.21951e+000
-8.89601e-006,-6.54612e-006,1.35254e-001,1.40137e-001,7.86133e-001,-2.32927e+001,8.53659e-001,1.40244e+000
-7.88891e-006,3.35698e-007,1.49414e-001,1.52344e-001,7.77344e-001,-2.37195e+001,5.48781e-001,1.34146e+000
-7.72107e-006,-4.69978e-006,1.68945e-001,1.68457e-001,7.66113e-001,-2.51220e+001,6.70732e-001,1.58537e+000
-7.88891e-006,-4.86763e-006,1.74805e-001,1.79688e-001,7.51465e-001,-2.58537e+001,7.92683e-001,1.46341e+000
-9.23171e-006,-5.03548e-007,1.69434e-001,1.86035e-001,7.31445e-001,-2.82927e+001,2.01220e+000,2.25610e+000
-9.56741e-006,-4.53193e-006,1.61621e-001,1.92383e-001,7.23145e-001,-2.96951e+001,3.29268e+000,2.43902e+000
-9.56741e-006,-9.90310e-006,1.39160e-001,1.94824e-001,7.00684e-001,-3.29268e+001,7.25610e+000,2.92683e+000
-1.27565e-005,-1.42672e-005,1.32324e-001,1.95313e-001,6.98242e-001,-3.47561e+001,9.63415e+000,3.41463e+000
-1.39315e-005,-1.35958e-005,1.14258e-001,1.97754e-001,7.08008e-001,-3.83537e+001,1.40244e+001,4.45122e+000
-1.25887e-005,-1.30922e-005,1.12305e-001,1.96289e-001,7.11914e-001,-3.98780e+001,1.54268e+001,5.06098e+000
-9.23171e-006,-1.49386e-005,1.10840e-001,1.90918e-001,7.28027e-001,-4.27439e+001,1.77439e+001,6.28049e+000
-1.14137e-005,-1.25887e-005,1.07422e-001,1.85059e-001,7.56836e-001,-4.45732e+001,1.82927e+001,7.31707e+000
-1.39315e-005,-1.07424e-005,1.03516e-001,1.78223e-001,7.75879e-001,-4.51220e+001,1.78049e+001,7.50000e+000
-1.12459e-005,-4.19623e-006,8.10547e-002,1.61621e-001,8.06641e-001,-4.62195e+001,1.67073e+001,8.53659e+000
-8.39246e-006,3.52483e-006,6.83594e-002,1.48438e-001,8.22754e-001,-4.64634e+001,1.55488e+001,8.96342e+000
-7.88891e-006,9.06386e-006,4.19922e-002,1.32813e-001,8.42773e-001,-4.60366e+001,1.28049e+001,9.51220e+000
-1.09102e-005,2.85344e-006,4.10156e-002,1.33301e-001,8.46191e-001,-4.60976e+001,1.14634e+001,9.75610e+000
-8.72816e-006,-6.37827e-006,5.76172e-002,1.40137e-001,8.31543e-001,-4.70732e+001,7.56098e+000,9.51220e+000
-8.72816e-006,-1.32601e-005,8.00781e-002,1.49414e-001,8.19824e-001,-4.78049e+001,5.79268e+000,9.02439e+000
-1.22530e-005,-1.72885e-005,1.69922e-001,1.72363e-001,7.92480e-001,-4.87195e+001,4.39024e+000,7.50000e+000
-1.35958e-005,-3.12200e-005,2.81250e-001,2.08496e-001,7.43164e-001,-5.03659e+001,5.85366e+000,4.45122e+000
-1.15816e-005,-4.54871e-005,3.38867e-001,2.29980e-001,7.20215e-001,-5.13415e+001,7.74390e+000,2.56098e+000
-1.19173e-005,-5.42153e-005,4.46289e-001,2.77344e-001,6.62109e-001,-5.54268e+001,1.37195e+001,-1.21951e+000
-9.90310e-006,-4.44800e-005,4.92676e-001,2.98340e-001,6.16211e-001,-5.77439e+001,1.81098e+001,-2.92683e+000
-8.22461e-006,-2.50095e-005,5.62012e-001,3.35449e-001,5.02930e-001,-6.31098e+001,3.14024e+001,-5.18293e+000
-6.88182e-006,-1.64492e-005,5.88379e-001,3.49121e-001,4.52637e-001,-6.63415e+001,4.01829e+001,-6.09756e+000
-3.35698e-006,-1.86313e-005,6.19629e-001,3.75977e-001,4.05273e-001,-7.40244e+001,6.42683e+001,-7.50000e+000
-5.87472e-006,-1.19173e-005,6.19141e-001,3.68164e-001,4.28223e-001,-7.73781e+001,7.71341e+001,-9.20732e+000
-8.72816e-006,-8.39246e-006,5.69336e-001,3.34961e-001,5.72754e-001,-8.11585e+001,9.86585e+001,-1.44512e+001
-6.37827e-006,-1.05745e-005,4.42383e-001,2.51465e-001,7.70508e-001,-7.92073e+001,1.08232e+002,-2.03049e+001
-7.72107e-006,-4.19623e-006,3.50098e-001,2.08008e-001,8.24707e-001,-7.60366e+001,1.07500e+002,-2.24390e+001
-1.62814e-005,3.18914e-006,1.44043e-001,1.12305e-001,1.00732e+000,-6.69512e+001,9.50610e+001,-2.51220e+001
-1.62814e-005,7.88891e-006,4.39453e-002,5.81055e-002,1.09961e+000,-6.01220e+001,8.42073e+001,-2.57927e+001
-1.59457e-005,8.39246e-006,-9.03320e-002,-4.54102e-002,1.28711e+000,-4.33537e+001,5.69512e+001,-2.78659e+001
-1.52743e-005,5.20333e-006,-1.41113e-001,-8.88672e-002,1.37500e+000,-3.42073e+001,4.15244e+001,-2.93293e+001
-9.23171e-006,3.35698e-007,-1.94824e-001,-1.81641e-001,1.58643e+000,-1.40854e+001,3.84146e+000,-3.31098e+001
-1.02388e-005,-8.39246e-007,-2.19727e-001,-2.15820e-001,1.67432e+000,-2.37805e+000,-1.82317e+001,-3.50000e+001
-9.06386e-006,-1.51064e-006,-2.58301e-001,-2.40723e-001,1.66406e+000,1.79268e+001,-6.68902e+001,-3.81707e+001
-1.17494e-005,4.19623e-006,-2.38770e-001,-2.26563e-001,1.54883e+000,2.81098e+001,-1.06280e+002,-3.78049e+001
-1.22530e-005,7.38537e-006,-1.98242e-001,-2.08496e-001,1.50195e+000,3.10366e+001,-1.19146e+002,-3.65854e+001
-1.09102e-005,1.17494e-006,-6.34766e-002,-1.59180e-001,1.50049e+000,3.72561e+001,-1.30366e+002,-3.26829e+001
-1.15816e-005,-7.21752e-006,1.80664e-002,-1.28418e-001,1.53076e+000,4.09756e+001,-1.32500e+002,-3.01220e+001
-1.00710e-005,-2.06455e-005,1.49902e-001,-5.56641e-002,1.48096e+000,4.57927e+001,-1.38476e+002,-2.45732e+001
-8.72816e-006,-2.87022e-005,1.21582e-001,-4.10156e-002,1.37744e+000,4.58537e+001,-1.44634e+002,-2.00000e+001
-7.72107e-006,-2.73594e-005,1.07422e-002,-6.59180e-002,1.15576e+000,4.17683e+001,-1.48293e+002,-7.68293e+000
-9.90310e-006,-3.50805e-005,-3.02734e-002,-1.04492e-001,1.15918e+000,3.68902e+001,-1.33598e+002,-3.47561e+000
-1.24208e-005,-3.44091e-005,-5.61523e-002,-1.37207e-001,1.23779e+000,2.06098e+001,-6.54268e+001,2.50000e+000
-1.12459e-005,-1.96384e-005,1.27930e-001,1.46484e-002,1.21680e+000,6.28049e+000,-2.28659e+001,6.58537e+000
-1.02388e-005,-7.55322e-006,3.11035e-001,1.25000e-001,1.24512e+000,-3.04878e+001,5.35366e+001,1.55488e+001
-7.55322e-006,-5.20333e-006,6.78223e-001,3.03711e-001,1.36084e+000,-5.68293e+001,1.09390e+002,1.96951e+001
-6.54612e-006,-8.39246e-007,8.08105e-001,3.59375e-001,1.41895e+000,-6.28659e+001,1.33963e+002,2.10976e+001
-1.09102e-005,7.04967e-006,9.30176e-001,4.18945e-001,1.40381e+000,-6.65854e+001,1.77500e+002,2.41463e+001
-1.10781e-005,6.88182e-006,9.38477e-001,4.34082e-001,1.28125e+000,-6.75610e+001,1.95427e+002,2.59756e+001
-1.09102e-005,4.02838e-006,8.80371e-001,4.53125e-001,9.58008e-001,-7.56707e+001,2.22988e+002,2.85366e+001
-1.09102e-005,8.39246e-007,8.27637e-001,4.45801e-001,8.31055e-001,-8.14024e+001,2.34878e+002,2.79878e+001
-1.27565e-005,-1.05745e-005,6.67480e-001,3.92090e-001,6.55762e-001,-9.03049e+001,2.55305e+002,2.44512e+001
-1.04067e-005,-2.03098e-005,5.60547e-001,3.58398e-001,5.84961e-001,-9.21951e+001,2.60854e+002,2.20732e+001
-9.56741e-006,-1.57778e-005,2.90039e-001,2.55859e-001,4.73145e-001,-8.93293e+001,2.53841e+002,1.96341e+001
-1.35958e-005,-1.51064e-005,-5.22461e-002,1.11328e-001,4.06250e-001,-7.90244e+001,2.20793e+002,2.00610e+001
-1.19173e-005,-1.40993e-005,-2.31445e-001,3.36914e-002,3.88672e-001,-7.20122e+001,1.97561e+002,2.03049e+001
-9.56741e-006,-1.09102e-005,-5.73730e-001,-1.03027e-001,4.00391e-001,-5.69512e+001,1.44268e+002,2.05488e+001
-1.37636e-005,-1.04067e-005,-7.26563e-001,-1.60156e-001,4.22363e-001,-4.90244e+001,1.16037e+002,2.04268e+001
-9.56741e-006,-1.29244e-005,-9.71191e-001,-2.32910e-001,4.95605e-001,-3.43293e+001,5.86585e+001,1.96341e+001
-1.00710e-005,-1.02388e-005,-1.05029e+000,-2.58789e-001,5.64941e-001,-2.71951e+001,2.99390e+001,1.90854e+001
-1.22530e-005,-7.21752e-006,-1.08105e+000,-2.68555e-001,7.12891e-001,-1.38415e+001,-2.16463e+001,1.76220e+001
-1.46029e-005,-7.38537e-006,-1.03076e+000,-2.53418e-001,7.91016e-001,-8.35366e+000,-4.41463e+001,1.68293e+001
-1.42672e-005,-4.19623e-006,-7.90039e-001,-1.78223e-001,9.29688e-001,1.89024e+000,-8.20732e+001,1.39024e+001
-8.56031e-006,1.67849e-006,-4.11133e-001,-5.02930e-002,9.68262e-001,8.04878e+000,-1.08841e+002,9.81707e+000
-3.35698e-007,7.55322e-006,-2.00195e-001,2.05078e-002,9.73145e-001,9.26829e+000,-1.15671e+002,8.10976e+000
-2.34989e-006,7.88891e-006,1.98242e-001,1.51855e-001,9.68750e-001,8.17073e+000,-1.14878e+002,4.02439e+000
-1.19173e-005,-4.19623e-006,3.72070e-001,2.08496e-001,9.71680e-001,6.95122e+000,-1.08415e+002,2.07317e+000
-1.42672e-005,-1.27565e-005,6.21094e-001,3.03711e-001,9.65820e-001,4.63415e+000,-8.80488e+001,-2.74390e+000
-1.29244e-005,-7.55322e-006,6.89453e-001,3.39844e-001,9.57031e-001,2.68293e+000,-7.62195e+001,-5.18293e+000
-1.02388e-005,-4.69978e-006,7.30957e-001,3.84277e-001,9.50195e-001,-2.13415e+000,-5.03659e+001,-9.81707e+000
-8.56031e-006,-1.57778e-005,7.00684e-001,3.82813e-001,9.58984e-001,-5.06098e+000,-3.69512e+001,-1.18902e+001
-6.88182e-006,-1.96384e-005,5.93750e-001,3.48145e-001,9.86328e-001,-1.04268e+001,-1.07927e+001,-1.45732e+001
-7.88891e-006,-1.17494e-005,4.52148e-001,2.77344e-001,1.00879e+000,-1.51220e+001,1.10366e+001,-1.62195e+001
-8.22461e-006,-1.12459e-005,3.76953e-001,2.36816e-001,1.02002e+000,-1.70122e+001,1.98780e+001,-1.63415e+001
-9.90310e-006,-1.19173e-005,2.34375e-001,1.40137e-001,1.06104e+000,-1.98171e+001,3.34146e+001,-1.65854e+001
-1.15816e-005,-6.37827e-006,1.69922e-001,9.86328e-002,1.08057e+000,-2.00610e+001,3.75000e+001,-1.63415e+001
-8.22461e-006,-6.37827e-006,6.05469e-002,2.97852e-002,1.13232e+000,-1.87805e+001,3.95732e+001,-1.54268e+001
-7.72107e-006,-6.71397e-007,8.78906e-003,8.30078e-003,1.14893e+000,-1.73780e+001,3.82317e+001,-1.49390e+001
-8.39246e-006,1.00710e-006,-7.03125e-002,-2.58789e-002,1.16064e+000,-1.46341e+001,3.32317e+001,-1.36585e+001
-9.56741e-006,-6.54612e-006,-1.04004e-001,-3.02734e-002,1.16309e+000,-1.34756e+001,3.00610e+001,-1.30488e+001
-9.23171e-006,-9.39956e-006,-1.32324e-001,-2.83203e-002,1.13867e+000,-1.10366e+001,2.39024e+001,-1.18902e+001
-1.24208e-005,-9.56741e-006,-1.12305e-001,-1.02539e-002,1.10547e+000,-9.32927e+000,1.78659e+001,-1.14024e+001
-1.62814e-005,-5.87472e-006,-9.42383e-002,6.83594e-003,1.08740e+000,-8.17073e+000,1.45732e+001,-1.14024e+001
-1.62814e-005,3.86053e-006,-5.85938e-002,3.02734e-002,1.05029e+000,-5.30488e+000,8.35366e+000,-1.15244e+001
-1.22530e-005,3.18914e-006,-4.73633e-002,4.19922e-002,1.03320e+000,-4.45122e+000,5.60976e+000,-1.17073e+001
-8.22461e-006,-5.53903e-006,-3.36914e-002,6.59180e-002,9.90723e-001,-3.29268e+000,1.52439e+000,-1.04878e+001
-9.73526e-006,-1.15816e-005,-2.83203e-002,7.61719e-002,9.75098e-001,-3.29268e+000,1.21951e-001,-1.00000e+001
-1.02388e-005,-1.64492e-005,-1.56250e-002,9.17969e-002,9.52637e-001,-3.59756e+000,-1.95122e+000,-8.90244e+000
-1.19173e-005,-3.18914e-005,-1.70898e-002,9.47266e-002,9.38965e-001,-3.90244e+000,-2.98780e+000,-8.47561e+000
-1.09102e-005,-4.46479e-005,-1.02539e-002,1.12305e-001,9.15039e-001,-5.18293e+000,-5.24390e+000,-7.43902e+000
-1.15816e-005,-5.55581e-005,-7.81250e-003,1.12793e-001,9.04785e-001,-5.30488e+000,-6.82927e+000,-7.07317e+000
-1.17494e-005,-6.26078e-005,-2.63672e-002,1.08887e-001,9.09180e-001,-4.69512e+000,-1.09146e+001,-6.46341e+000
-8.56031e-006,-6.26078e-005,-6.15234e-002,8.74023e-002,9.26270e-001,-2.01220e+000,-1.62195e+001,-5.36585e+000
-7.21752e-006,-1.17494e-006,-8.25195e-002,7.32422e-002,9.34082e-001,0.00000e+000,-1.87195e+001,-4.69512e+000
-9.73526e-006,3.44091e-005,-1.21094e-001,4.98047e-002,9.40918e-001,2.56098e+000,-2.31098e+001,-3.65854e+000
-8.89601e-006,3.86053e-006,-1.32324e-001,4.24805e-002,9.43359e-001,3.47561e+000,-2.47561e+001,-3.41463e+000
-8.22461e-006,-2.34989e-006,-1.36719e-001,3.71094e-002,9.49707e-001,4.57317e+000,-2.82317e+001,-2.56098e+000
-8.89601e-006,1.49386e-005,-1.31348e-001,3.17383e-002,9.53613e-001,6.03659e+000,-3.07317e+001,-2.19512e+000
-6.88182e-006,2.60166e-005,-1.03516e-001,3.07617e-002,9.47754e-001,9.39024e+000,-3.75000e+001,-2.19512e+000
-8.39246e-006,3.02129e-005,-8.78906e-002,2.97852e-002,9.37500e-001,1.17683e+001,-4.18293e+001,-2.13415e+000
-8.56031e-006,1.99741e-005,-5.90820e-002,2.73438e-002,9.19434e-001,1.57927e+001,-4.89634e+001,-2.62195e+000
-9.23171e-006,7.21752e-006,-4.15039e-002,3.32031e-002,9.21875e-001,1.85366e+001,-5.27439e+001,-2.92683e+000
-8.22461e-006,-1.51064e-006,-3.41797e-002,2.73438e-002,9.30176e-001,1.96341e+001,-5.39024e+001,-2.86585e+000
-7.88891e-006,1.17494e-006,-1.31836e-002,3.71094e-002,9.29199e-001,2.02439e+001,-5.48171e+001,-2.19512e+000
-7.55322e-006,6.54612e-006,2.92969e-003,4.58984e-002,9.29199e-001,1.99390e+001,-5.44512e+001,-1.82927e+000
-8.56031e-006,-1.00710e-006,4.34570e-002,5.41992e-002,9.54102e-001,1.82317e+001,-5.11585e+001,-1.03659e+000
-8.39246e-006,-8.89601e-006,5.95703e-002,5.61523e-002,9.70703e-001,1.72561e+001,-4.84756e+001,-7.92683e-001
-7.55322e-006,-7.88891e-006,8.49609e-002,6.25000e-002,9.96582e-001,1.65854e+001,-4.32927e+001,-2.43902e-001
-9.73526e-006,-6.88182e-006,9.96094e-002,6.64063e-002,1.00928e+000,1.59756e+001,-4.10976e+001,-1.21951e-001
-8.56031e-006,-8.22461e-006,1.16211e-001,7.17773e-002,1.01904e+000,1.51220e+001,-3.64024e+001,8.53659e-001
-3.86053e-006,-6.37827e-006,1.16699e-001,8.05664e-002,1.02393e+000,1.39024e+001,-2.97561e+001,2.68293e+000
-5.87472e-006,-1.71206e-005,1.20605e-001,8.88672e-002,1.01904e+000,1.28659e+001,-2.53049e+001,3.84146e+000
-8.72816e-006,-3.40734e-005,1.33301e-001,1.05957e-001,9.92188e-001,1.04268e+001,-1.64634e+001,6.70732e+000
-7.21752e-006,-3.92767e-005,1.45020e-001,1.21094e-001,9.79492e-001,9.69512e+000,-1.31098e+001,7.92683e+000
-6.54612e-006,-3.44091e-005,1.54785e-001,1.55762e-001,9.60938e-001,8.41463e+000,-9.08537e+000,9.32927e+000
-6.88182e-006,-3.64233e-005,1.63574e-001,1.71875e-001,9.72656e-001,8.23171e+000,-8.10976e+000,9.32927e+000
-9.56741e-006,-3.70947e-005,1.91406e-001,2.01172e-001,1.01123e+000,7.62195e+000,-4.75610e+000,7.37805e+000
-8.22461e-006,-3.27306e-005,2.13379e-001,2.08008e-001,1.01611e+000,7.07317e+000,-2.68293e+000,5.91463e+000
-1.84634e-006,-2.50095e-005,2.67090e-001,2.21680e-001,9.75586e-001,6.15854e+000,0.00000e+000,2.98780e+000
-5.37118e-006,-8.89601e-006,2.98828e-001,2.19238e-001,8.92578e-001,4.20732e+000,2.68293e+000,9.14634e-001
-1.46029e-005,4.69978e-006,3.07617e-001,2.13379e-001,8.62305e-001,2.19512e+000,5.79268e+000,4.26829e-001
-2.03098e-005,1.46029e-005,3.24219e-001,2.18750e-001,8.15918e-001,-2.98780e+000,1.78659e+001,2.43902e-001
-1.52743e-005,9.06386e-006,3.37402e-001,2.25098e-001,7.96387e-001,-6.52439e+000,2.58537e+001,5.48781e-001
-1.22530e-005,-4.19623e-006,3.76465e-001,2.43164e-001,7.84180e-001,-1.47561e+001,4.39024e+001,1.28049e+000
-8.22461e-006,-3.69268e-006,3.96973e-001,2.50488e-001,7.90527e-001,-1.82927e+001,5.28659e+001,1.58537e+000
-8.22461e-006,5.03548e-007,4.35547e-001,2.65137e-001,8.13477e-001,-2.34146e+001,7.12195e+001,2.01220e+000
-1.69528e-005,-3.52483e-006,4.48730e-001,2.81738e-001,8.12988e-001,-2.64634e+001,8.16463e+001,2.19512e+000
-1.72885e-005,-3.35698e-006,4.73633e-001,3.09082e-001,7.82227e-001,-3.47561e+001,1.05000e+002,2.80488e+000
-1.32601e-005,-1.67849e-006,5.02441e-001,3.48633e-001,7.21680e-001,-3.96341e+001,1.17195e+002,2.86585e+000
-1.22530e-005,-4.86763e-006,5.14160e-001,3.75488e-001,6.56738e-001,-4.96341e+001,1.39268e+002,2.98780e+000
-1.42672e-005,-7.72107e-006,5.14648e-001,4.32617e-001,5.26367e-001,-5.90244e+001,1.53720e+002,1.58537e+000
-1.52743e-005,-8.56031e-006,4.86816e-001,4.52637e-001,4.50684e-001,-6.25000e+001,1.57866e+002,1.03659e+000
-1.17494e-005,-1.39315e-005,3.57422e-001,4.48242e-001,3.42773e-001,-6.71951e+001,1.60854e+002,4.26829e-001
-9.23171e-006,-1.72885e-005,2.42676e-001,4.16992e-001,3.00781e-001,-6.74390e+001,1.58780e+002,1.15854e+000
-1.35958e-005,-1.93027e-005,-6.49414e-002,3.08105e-001,2.54395e-001,-6.51220e+001,1.44146e+002,3.90244e+000
-1.22530e-005,-2.38346e-005,-2.38770e-001,2.30469e-001,3.11035e-001,-6.14024e+001,1.29024e+002,5.30488e+000
-9.73526e-006,-2.04776e-005,-6.58691e-001,-3.32031e-002,5.79102e-001,-4.07317e+001,7.90854e+001,7.74390e+000
-7.38537e-006,-1.22530e-005,-8.98438e-001,-1.93359e-001,7.10938e-001,-2.59756e+001,4.64634e+001,9.14634e+000
